acc,accuracy,average_response_time,avg_rt,background,batchId,batchTitle,bidi,block,browser,canvas_backend,clock_backend,color_backend,compensation,componentId,componentPos,componentResultId,componentTitle,coordinates,correct,count_Clearscreen,count_Duration,count_GreenDot,count_Instructions,count_Instructions2,count_IsI,count_RedDot,count_TimeEnd,count_Trial,count_experiment,count_loopBlock2,count_mainloop,count_new_logger,count_new_sketchpad,count_new_sketchpad_1,count_osweb,count_pauze,date,datetime,delay_Duration,delay_IsI,description,disable_garbage_collection,duration,experiment,experiment_path,font_bold,font_family,font_italic,font_size,font_underline,foreground,form_clicks,fullscreen,groupMemberId,groupResultId,height,keyboard_backend,mouse_backend,opensesame_codename,opensesame_version,response,response_Instructions,response_Instructions2,response_TimeEnd,response_pauze,response_time,response_time_Instructions,response_time_Instructions2,response_time_TimeEnd,response_time_pauze,round_decimals,sampler_backend,screen,sessionid,sound_buf_size,sound_channels,sound_freq,sound_sample_size,start,studyId,studyResultId,studyTitle,subject_nr,subject_parity,system,time_Clearscreen,time_Duration,time_GreenDot,time_Instructions,time_Instructions2,time_IsI,time_RedDot,time_TimeEnd,time_loopBlock2,time_mainloop,time_new_logger,time_new_sketchpad_1,time_pauze,title,total_correct,total_response_time,total_responses,uniform_coordinates,w,width,workerId
0,0,1011,1011,black,48,Default,no,1,,xpyriment,legacy,legacy,0,45,1,411,OSWeb experiment,uniform,undefined,1,0,0,0,0,0,0,0,0,0,0,0,0,0,1,0,0,,Fri Nov 15 2019 10:33:41 GMT+0100 (Central European Standard Time),816,2835,The main experiment item,yes,1535,,/Users/rijn/Downloads,no,mono,no,18,no,white,no,no,None,null,768,legacy,xpyriment,osweb,1.3.3,space,space,,space,,1011,23132,,1011,,2,legacy,,1573810423788,1024,2,48000,-16,experiment,45,411,TimingLong,999999999,odd,,29474,27623,26078,69,,23225,28458,28459,69,69,29474,23211,,TimingLong,0,1011,1,yes,8,1024,482
0,0,798,798,black,48,Default,no,1,,xpyriment,legacy,legacy,0,45,1,411,OSWeb experiment,uniform,undefined,3,1,1,0,0,1,1,1,1,0,0,0,1,0,1,0,0,,Fri Nov 15 2019 10:33:41 GMT+0100 (Central European Standard Time),803,2824,The main experiment item,yes,1165,,/Users/rijn/Downloads,no,mono,no,18,no,white,no,no,None,null,768,legacy,xpyriment,osweb,1.3.3,space,space,,space,,585,23132,,585,,2,legacy,,1573810423788,1024,2,48000,-16,experiment,45,411,TimingLong,999999999,odd,,34939,33523,32344,69,,29502,34340,34340,69,69,34939,23211,,TimingLong,0,1596,2,yes,8,1024,482
0,0,761,761,black,48,Default,no,1,,xpyriment,legacy,legacy,0,45,1,411,OSWeb experiment,uniform,undefined,5,2,2,0,0,2,2,2,2,0,0,0,2,0,1,0,0,,Fri Nov 15 2019 10:33:41 GMT+0100 (Central European Standard Time),808,3034,The main experiment item,yes,1395,,/Users/rijn/Downloads,no,mono,no,18,no,white,no,no,None,null,768,legacy,xpyriment,osweb,1.3.3,space,space,,space,,686,23132,,686,,2,legacy,,1573810423788,1024,2,48000,-16,experiment,45,411,TimingLong,999999999,odd,,40906,39391,37991,69,,34944,40207,40207,69,69,40906,23211,,TimingLong,0,2282,3,yes,8,1024,482
0,0,736,736,black,48,Default,no,1,,xpyriment,legacy,legacy,0,45,1,411,OSWeb experiment,uniform,undefined,7,3,3,0,0,3,3,3,3,0,0,0,3,0,1,0,0,,Fri Nov 15 2019 10:33:41 GMT+0100 (Central European Standard Time),727,2890,The main experiment item,yes,1265,,/Users/rijn/Downloads,no,mono,no,18,no,white,no,no,None,null,768,legacy,xpyriment,osweb,1.3.3,space,space,,space,,660,23132,,660,,2,legacy,,1573810423788,1024,2,48000,-16,experiment,45,411,TimingLong,999999999,odd,,46490,45091,43808,69,,40911,45827,45827,69,69,46490,23211,,TimingLong,0,2942,4,yes,8,1024,482
0,0,774,774,black,48,Default,no,1,,xpyriment,legacy,legacy,0,45,1,411,OSWeb experiment,uniform,undefined,9,4,4,0,0,4,4,4,4,0,0,0,4,0,1,0,0,,Fri Nov 15 2019 10:33:41 GMT+0100 (Central European Standard Time),842,3002,The main experiment item,yes,1395,,/Users/rijn/Downloads,no,mono,no,18,no,white,no,no,None,null,768,legacy,xpyriment,osweb,1.3.3,space,space,,space,,927,23132,,927,,2,legacy,,1573810423788,1024,2,48000,-16,experiment,45,411,TimingLong,999999999,odd,,52692,50908,49508,69,,46501,51759,51759,69,69,52692,23211,,TimingLong,0,3869,5,yes,8,1024,482
0,0,767,767,black,48,Default,no,1,,xpyriment,legacy,legacy,0,45,1,411,OSWeb experiment,uniform,undefined,11,5,5,0,0,5,5,5,5,0,0,0,5,0,1,0,0,,Fri Nov 15 2019 10:33:41 GMT+0100 (Central European Standard Time),821,3217,The main experiment item,yes,1265,,/Users/rijn/Downloads,no,mono,no,18,no,white,no,no,None,null,768,legacy,xpyriment,osweb,1.3.3,space,space,,space,,732,23132,,732,,2,legacy,,1573810423788,1024,2,48000,-16,experiment,45,411,TimingLong,999999999,odd,,58807,57224,55942,69,,52707,58059,58059,69,69,58807,23211,,TimingLong,0,4601,6,yes,8,1024,482
0,0,751,751,black,48,Default,no,1,,xpyriment,legacy,legacy,0,45,1,411,OSWeb experiment,uniform,undefined,13,6,6,0,0,6,6,6,6,0,0,0,6,0,1,0,0,,Fri Nov 15 2019 10:33:41 GMT+0100 (Central European Standard Time),761,2946,The main experiment item,yes,1165,,/Users/rijn/Downloads,no,mono,no,18,no,white,no,no,None,null,768,legacy,xpyriment,osweb,1.3.3,space,space,,space,,658,23132,,658,,2,legacy,,1573810423788,1024,2,48000,-16,experiment,45,411,TimingLong,999999999,odd,,64373,62941,61774,69,,58817,63708,63708,69,69,64373,23211,,TimingLong,0,5259,7,yes,8,1024,482
0,0,737,737,black,48,Default,no,1,,xpyriment,legacy,legacy,0,45,1,411,OSWeb experiment,uniform,undefined,15,7,7,0,0,7,7,7,7,0,0,0,7,0,1,0,0,,Fri Nov 15 2019 10:33:41 GMT+0100 (Central European Standard Time),858,3049,The main experiment item,yes,1165,,/Users/rijn/Downloads,no,mono,no,18,no,white,no,no,None,null,768,legacy,xpyriment,osweb,1.3.3,space,space,,space,,635,23132,,635,,2,legacy,,1573810423788,1024,2,48000,-16,experiment,45,411,TimingLong,999999999,odd,,70141,68624,67442,69,,64384,69492,69492,69,69,70141,23211,,TimingLong,0,5894,8,yes,8,1024,482
0,0,731,731,black,48,Default,no,1,,xpyriment,legacy,legacy,0,45,1,411,OSWeb experiment,uniform,undefined,17,8,8,0,0,8,8,8,8,0,0,0,8,0,1,0,0,,Fri Nov 15 2019 10:33:41 GMT+0100 (Central European Standard Time),743,3215,The main experiment item,yes,1165,,/Users/rijn/Downloads,no,mono,no,18,no,white,no,no,None,null,768,legacy,xpyriment,osweb,1.3.3,space,space,,space,,689,23132,,689,,2,legacy,,1573810423788,1024,2,48000,-16,experiment,45,411,TimingLong,999999999,odd,,76007,74558,73377,69,,70151,75309,75309,69,69,76007,23211,,TimingLong,0,6583,9,yes,8,1024,482
0,0,700,700,black,48,Default,no,1,,xpyriment,legacy,legacy,0,45,1,411,OSWeb experiment,uniform,undefined,19,9,9,0,0,9,9,9,9,0,0,0,9,0,1,0,0,,Fri Nov 15 2019 10:33:41 GMT+0100 (Central European Standard Time),811,2943,The main experiment item,yes,1675,,/Users/rijn/Downloads,no,mono,no,18,no,white,no,no,None,null,768,legacy,xpyriment,osweb,1.3.3,space,space,,space,,419,23132,,419,,2,legacy,,1573810423788,1024,2,48000,-16,experiment,45,411,TimingLong,999999999,odd,,81907,80658,78979,69,,76018,81475,81475,69,69,81907,23211,,TimingLong,0,7002,10,yes,8,1024,482
0,0,728,728,black,48,Default,no,1,,xpyriment,legacy,legacy,0,45,1,411,OSWeb experiment,uniform,undefined,21,10,10,0,0,10,10,10,10,0,0,0,10,0,1,0,0,,Fri Nov 15 2019 10:33:41 GMT+0100 (Central European Standard Time),744,2987,The main experiment item,yes,1265,,/Users/rijn/Downloads,no,mono,no,18,no,white,no,no,None,null,768,legacy,xpyriment,osweb,1.3.3,space,space,,space,,1001,23132,,1001,,2,legacy,,1573810423788,1024,2,48000,-16,experiment,45,411,TimingLong,999999999,odd,,87958,86191,84909,69,,81919,86941,86941,69,69,87958,23211,,TimingLong,0,8003,11,yes,8,1024,482
0,0,766,766,black,48,Default,no,1,,xpyriment,legacy,legacy,0,45,1,411,OSWeb experiment,uniform,undefined,23,11,11,0,0,11,11,11,11,0,0,0,11,0,1,0,0,,Fri Nov 15 2019 10:33:41 GMT+0100 (Central European Standard Time),795,2978,The main experiment item,yes,1535,,/Users/rijn/Downloads,no,mono,no,18,no,white,no,no,None,null,768,legacy,xpyriment,osweb,1.3.3,space,space,,space,,1194,23132,,1194,,2,legacy,,1573810423788,1024,2,48000,-16,experiment,45,411,TimingLong,999999999,odd,,94507,92507,90960,69,,87968,93308,93308,69,69,94507,23211,,TimingLong,0,9197,12,yes,8,1024,482
0,0,767,767,black,48,Default,no,1,,xpyriment,legacy,legacy,0,45,1,411,OSWeb experiment,uniform,undefined,25,12,12,0,0,12,12,12,12,0,0,0,12,0,1,0,0,,Fri Nov 15 2019 10:33:41 GMT+0100 (Central European Standard Time),871,2896,The main experiment item,yes,1395,,/Users/rijn/Downloads,no,mono,no,18,no,white,no,no,None,null,768,legacy,xpyriment,osweb,1.3.3,space,space,,space,,778,23132,,778,,2,legacy,,1573810423788,1024,2,48000,-16,experiment,45,411,TimingLong,999999999,odd,,100507,98825,97426,69,,94519,99716,99716,69,69,100507,23211,,TimingLong,0,9975,13,yes,8,1024,482
0,0,773,773,black,48,Default,no,1,,xpyriment,legacy,legacy,0,45,1,411,OSWeb experiment,uniform,undefined,27,13,13,0,0,13,13,13,13,0,0,0,13,0,1,0,0,,Fri Nov 15 2019 10:33:41 GMT+0100 (Central European Standard Time),823,2893,The main experiment item,yes,1265,,/Users/rijn/Downloads,no,mono,no,18,no,white,no,no,None,null,768,legacy,xpyriment,osweb,1.3.3,space,space,,space,,840,23132,,840,,2,legacy,,1573810423788,1024,2,48000,-16,experiment,45,411,TimingLong,999999999,odd,,106391,104707,103425,69,,100519,105542,105542,69,69,106391,23211,,TimingLong,0,10815,14,yes,8,1024,482
0,0,787,787,black,48,Default,no,1,,xpyriment,legacy,legacy,0,45,1,411,OSWeb experiment,uniform,undefined,29,14,14,0,0,14,14,14,14,0,0,0,14,0,1,0,0,,Fri Nov 15 2019 10:33:41 GMT+0100 (Central European Standard Time),748,3167,The main experiment item,yes,1395,,/Users/rijn/Downloads,no,mono,no,18,no,white,no,no,None,null,768,legacy,xpyriment,osweb,1.3.3,space,space,,space,,985,23132,,985,,2,legacy,,1573810423788,1024,2,48000,-16,experiment,45,411,TimingLong,999999999,odd,,112741,110975,109575,69,,106401,111741,111741,69,69,112741,23211,,TimingLong,0,11800,15,yes,8,1024,482
0,0,779,779,black,48,Default,no,1,,xpyriment,legacy,legacy,0,45,1,411,OSWeb experiment,uniform,undefined,31,15,15,0,0,15,15,15,15,0,0,0,15,0,1,0,0,,Fri Nov 15 2019 10:33:41 GMT+0100 (Central European Standard Time),769,3041,The main experiment item,yes,1165,,/Users/rijn/Downloads,no,mono,no,18,no,white,no,no,None,null,768,legacy,xpyriment,osweb,1.3.3,space,space,,space,,671,23132,,671,,2,legacy,,1573810423788,1024,2,48000,-16,experiment,45,411,TimingLong,999999999,odd,,118458,116992,115810,69,,112751,117775,117775,69,69,118458,23211,,TimingLong,0,12471,16,yes,8,1024,482
0,0,795,795,black,48,Default,no,1,,xpyriment,legacy,legacy,0,45,1,411,OSWeb experiment,uniform,undefined,33,16,16,0,0,16,16,16,16,0,0,0,16,0,1,0,0,,Fri Nov 15 2019 10:33:41 GMT+0100 (Central European Standard Time),824,2916,The main experiment item,yes,1535,,/Users/rijn/Downloads,no,mono,no,18,no,white,no,no,None,null,768,legacy,xpyriment,osweb,1.3.3,space,space,,space,,1047,23132,,1047,,2,legacy,,1573810423788,1024,2,48000,-16,experiment,45,411,TimingLong,999999999,odd,,124825,122941,121392,69,,118468,123775,123775,69,69,124825,23211,,TimingLong,0,13518,17,yes,8,1024,482
0,0,797,797,black,48,Default,no,1,,xpyriment,legacy,legacy,0,45,1,411,OSWeb experiment,uniform,undefined,35,17,17,0,0,17,17,17,17,0,0,0,17,0,1,0,0,,Fri Nov 15 2019 10:33:41 GMT+0100 (Central European Standard Time),859,3136,The main experiment item,yes,1535,,/Users/rijn/Downloads,no,mono,no,18,no,white,no,no,None,null,768,legacy,xpyriment,osweb,1.3.3,space,space,,space,,821,23132,,821,,2,legacy,,1573810423788,1024,2,48000,-16,experiment,45,411,TimingLong,999999999,odd,,131241,129541,127992,69,,124837,130408,130409,69,69,131241,23211,,TimingLong,0,14339,18,yes,8,1024,482
0,0,811,811,black,48,Default,no,1,,xpyriment,legacy,legacy,0,45,1,411,OSWeb experiment,uniform,undefined,37,18,18,0,0,18,18,18,18,0,0,0,18,0,1,0,0,,Fri Nov 15 2019 10:33:41 GMT+0100 (Central European Standard Time),857,3104,The main experiment item,yes,1535,,/Users/rijn/Downloads,no,mono,no,18,no,white,no,no,None,null,768,legacy,xpyriment,osweb,1.3.3,space,space,,space,,1078,23132,,1078,,2,legacy,,1573810423788,1024,2,48000,-16,experiment,45,411,TimingLong,999999999,odd,,137857,135909,134358,69,,131251,136776,136776,69,69,137857,23211,,TimingLong,0,15417,19,yes,8,1024,482
0,0,805,805,black,48,Default,no,1,,xpyriment,legacy,legacy,0,45,1,411,OSWeb experiment,uniform,undefined,39,19,19,0,0,19,19,19,19,0,0,0,19,0,1,0,0,,Fri Nov 15 2019 10:33:41 GMT+0100 (Central European Standard Time),812,2856,The main experiment item,yes,1265,,/Users/rijn/Downloads,no,mono,no,18,no,white,no,no,None,null,768,legacy,xpyriment,osweb,1.3.3,space,space,,space,,677,23132,,677,,2,legacy,,1573810423788,1024,2,48000,-16,experiment,45,411,TimingLong,999999999,odd,,143507,142008,140741,69,,137870,142825,142825,69,69,143507,23211,,TimingLong,0,16094,20,yes,8,1024,482
0,0,826,826,black,48,Default,no,1,,xpyriment,legacy,legacy,0,45,1,411,OSWeb experiment,uniform,undefined,41,20,20,0,0,20,20,20,20,0,0,0,20,0,1,0,0,,Fri Nov 15 2019 10:33:41 GMT+0100 (Central European Standard Time),835,2964,The main experiment item,yes,1265,,/Users/rijn/Downloads,no,mono,no,18,no,white,no,no,None,null,768,legacy,xpyriment,osweb,1.3.3,space,space,,space,,1258,23132,,1258,,2,legacy,,1573810423788,1024,2,48000,-16,experiment,45,411,TimingLong,999999999,odd,,149891,147775,146492,69,,143517,148628,148628,69,69,149891,23211,,TimingLong,0,17352,21,yes,8,1024,482
0,0,838,838,black,48,Default,no,1,,xpyriment,legacy,legacy,0,45,1,411,OSWeb experiment,uniform,undefined,43,21,21,0,0,21,21,21,21,0,0,0,21,0,1,0,0,,Fri Nov 15 2019 10:33:41 GMT+0100 (Central European Standard Time),872,2773,The main experiment item,yes,1675,,/Users/rijn/Downloads,no,mono,no,18,no,white,no,no,None,null,768,legacy,xpyriment,osweb,1.3.3,space,space,,space,,1075,23132,,1075,,2,legacy,,1573810423788,1024,2,48000,-16,experiment,45,411,TimingLong,999999999,odd,,156341,154375,152692,69,,149902,155259,155259,69,69,156341,23211,,TimingLong,0,18427,22,yes,8,1024,482
0,0,849,849,black,48,Default,no,1,,xpyriment,legacy,legacy,0,45,1,411,OSWeb experiment,uniform,undefined,45,22,22,0,0,22,22,22,22,0,0,0,22,0,1,0,0,,Fri Nov 15 2019 10:33:41 GMT+0100 (Central European Standard Time),847,2911,The main experiment item,yes,1535,,/Users/rijn/Downloads,no,mono,no,18,no,white,no,no,None,null,768,legacy,xpyriment,osweb,1.3.3,space,space,,space,,1090,23132,,1090,,2,legacy,,1573810423788,1024,2,48000,-16,experiment,45,411,TimingLong,999999999,odd,,162776,160825,159277,69,,156353,161676,161676,69,69,162776,23211,,TimingLong,0,19517,23,yes,8,1024,482
0,0,855,855,black,48,Default,no,1,,xpyriment,legacy,legacy,0,45,1,411,OSWeb experiment,uniform,undefined,47,23,23,0,0,23,23,23,23,0,0,0,23,0,1,0,0,,Fri Nov 15 2019 10:33:41 GMT+0100 (Central European Standard Time),798,3104,The main experiment item,yes,1395,,/Users/rijn/Downloads,no,mono,no,18,no,white,no,no,None,null,768,legacy,xpyriment,osweb,1.3.3,space,space,,space,,1001,23132,,1001,,2,legacy,,1573810423788,1024,2,48000,-16,experiment,45,411,TimingLong,999999999,odd,,169124,167308,165909,69,,162786,168109,168109,69,69,169124,23211,,TimingLong,0,20518,24,yes,8,1024,482
0,0,861,861,black,48,Default,no,1,,xpyriment,legacy,legacy,0,45,1,411,OSWeb experiment,uniform,undefined,49,24,24,0,0,24,24,24,24,0,0,0,24,0,1,0,0,,Fri Nov 15 2019 10:33:41 GMT+0100 (Central European Standard Time),700,2948,The main experiment item,yes,1675,,/Users/rijn/Downloads,no,mono,no,18,no,white,no,no,None,null,768,legacy,xpyriment,osweb,1.3.3,space,space,,space,,1010,23132,,1010,,2,legacy,,1573810423788,1024,2,48000,-16,experiment,45,411,TimingLong,999999999,odd,,175508,173775,172092,69,,169134,174492,174492,69,69,175508,23211,,TimingLong,0,21528,25,yes,8,1024,482
0,0,895,895,black,48,Default,no,1,,xpyriment,legacy,legacy,0,45,1,411,OSWeb experiment,uniform,undefined,51,25,25,0,0,25,25,25,25,0,0,0,25,0,1,0,0,,Fri Nov 15 2019 10:33:41 GMT+0100 (Central European Standard Time),839,2767,The main experiment item,yes,1675,,/Users/rijn/Downloads,no,mono,no,18,no,white,no,no,None,null,768,legacy,xpyriment,osweb,1.3.3,space,space,,space,,1748,23132,,1748,,2,legacy,,1573810423788,1024,2,48000,-16,experiment,45,411,TimingLong,999999999,odd,,182575,179976,178292,69,,175520,180826,180826,69,69,182575,23211,,TimingLong,0,23276,26,yes,8,1024,482
0,0,911,911,black,48,Default,no,1,,xpyriment,legacy,legacy,0,45,1,411,OSWeb experiment,uniform,undefined,53,26,26,0,0,26,26,26,26,0,0,0,26,0,1,0,0,,Fri Nov 15 2019 10:33:41 GMT+0100 (Central European Standard Time),834,3225,The main experiment item,yes,1395,,/Users/rijn/Downloads,no,mono,no,18,no,white,no,no,None,null,768,legacy,xpyriment,osweb,1.3.3,space,space,,space,,1314,23132,,1314,,2,legacy,,1573810423788,1024,2,48000,-16,experiment,45,411,TimingLong,999999999,odd,,189391,187225,185827,69,,182585,188076,188076,69,69,189391,23211,,TimingLong,0,24590,27,yes,8,1024,482
0,0,927,927,black,48,Default,no,1,,xpyriment,legacy,legacy,0,45,1,411,OSWeb experiment,uniform,undefined,55,27,27,0,0,27,27,27,27,0,0,0,27,0,1,0,0,,Fri Nov 15 2019 10:33:41 GMT+0100 (Central European Standard Time),777,3105,The main experiment item,yes,1675,,/Users/rijn/Downloads,no,mono,no,18,no,white,no,no,None,null,768,legacy,xpyriment,osweb,1.3.3,space,space,,space,,1358,23132,,1358,,2,legacy,,1573810423788,1024,2,48000,-16,experiment,45,411,TimingLong,999999999,odd,,196341,194191,192509,69,,189401,194976,194976,69,69,196341,23211,,TimingLong,0,25948,28,yes,8,1024,482
0,0,917,917,black,48,Default,no,1,,xpyriment,legacy,legacy,0,45,1,411,OSWeb experiment,uniform,undefined,57,28,28,0,0,28,28,28,28,0,0,0,28,0,1,0,0,,Fri Nov 15 2019 10:33:41 GMT+0100 (Central European Standard Time),875,3102,The main experiment item,yes,1165,,/Users/rijn/Downloads,no,mono,no,18,no,white,no,no,None,null,768,legacy,xpyriment,osweb,1.3.3,space,space,,space,,640,23132,,640,,2,legacy,,1573810423788,1024,2,48000,-16,experiment,45,411,TimingLong,999999999,odd,,202175,200643,199459,69,,196351,201526,201526,69,69,202175,23211,,TimingLong,0,26588,29,yes,8,1024,482
0,0,935,935,black,48,Default,no,1,,xpyriment,legacy,legacy,0,45,1,411,OSWeb experiment,uniform,undefined,59,29,29,0,0,29,29,29,29,0,0,0,29,0,1,0,0,,Fri Nov 15 2019 10:33:41 GMT+0100 (Central European Standard Time),814,3032,The main experiment item,yes,1265,,/Users/rijn/Downloads,no,mono,no,18,no,white,no,no,None,null,768,legacy,xpyriment,osweb,1.3.3,space,space,,space,,1464,23132,,1464,,2,legacy,,1573810423788,1024,2,48000,-16,experiment,45,411,TimingLong,999999999,odd,,208791,206509,205226,69,,202188,207326,207326,69,69,208791,23211,,TimingLong,0,28052,30,yes,8,1024,482
0,0,930,930,black,48,Default,no,1,,xpyriment,legacy,legacy,0,45,1,411,OSWeb experiment,uniform,undefined,61,30,30,0,0,30,30,30,30,0,0,0,30,0,1,0,0,,Fri Nov 15 2019 10:33:41 GMT+0100 (Central European Standard Time),825,2837,The main experiment item,yes,1165,,/Users/rijn/Downloads,no,mono,no,18,no,white,no,no,None,null,768,legacy,xpyriment,osweb,1.3.3,space,space,,space,,764,23132,,764,,2,legacy,,1573810423788,1024,2,48000,-16,experiment,45,411,TimingLong,999999999,odd,,214425,212825,211644,69,,208801,213658,213658,69,69,214425,23211,,TimingLong,0,28816,31,yes,8,1024,482
0,0,933,933,black,48,Default,no,1,,xpyriment,legacy,legacy,0,45,1,411,OSWeb experiment,uniform,undefined,63,31,31,0,0,31,31,31,31,0,0,0,31,0,1,0,0,,Fri Nov 15 2019 10:33:41 GMT+0100 (Central European Standard Time),716,3210,The main experiment item,yes,1265,,/Users/rijn/Downloads,no,mono,no,18,no,white,no,no,None,null,768,legacy,xpyriment,osweb,1.3.3,space,space,,space,,1034,23132,,1034,,2,legacy,,1573810423788,1024,2,48000,-16,experiment,45,411,TimingLong,999999999,odd,,220725,218942,217659,69,,214435,219676,219676,69,69,220725,23211,,TimingLong,0,29850,32,yes,8,1024,482
0,0,935,935,black,48,Default,no,1,,xpyriment,legacy,legacy,0,45,1,411,OSWeb experiment,uniform,undefined,65,32,32,0,0,32,32,32,32,0,0,0,32,0,1,0,0,,Fri Nov 15 2019 10:33:41 GMT+0100 (Central European Standard Time),705,2964,The main experiment item,yes,1675,,/Users/rijn/Downloads,no,mono,no,18,no,white,no,no,None,null,768,legacy,xpyriment,osweb,1.3.3,space,space,,space,,1001,23132,,1001,,2,legacy,,1573810423788,1024,2,48000,-16,experiment,45,411,TimingLong,999999999,odd,,227125,225392,223709,69,,220735,226109,226109,69,69,227125,23211,,TimingLong,0,30851,33,yes,8,1024,482
0,0,952,952,black,48,Default,no,1,,xpyriment,legacy,legacy,0,45,1,411,OSWeb experiment,uniform,undefined,67,33,33,0,0,33,33,33,33,0,0,0,33,0,1,0,0,,Fri Nov 15 2019 10:33:41 GMT+0100 (Central European Standard Time),796,2819,The main experiment item,yes,1165,,/Users/rijn/Downloads,no,mono,no,18,no,white,no,no,None,null,768,legacy,xpyriment,osweb,1.3.3,space,space,,space,,1512,23132,,1512,,2,legacy,,1573810423788,1024,2,48000,-16,experiment,45,411,TimingLong,999999999,odd,,233441,231125,229959,69,,227137,231926,231926,69,69,233441,23211,,TimingLong,0,32363,34,yes,8,1024,482
0,0,952,952,black,48,Default,no,1,,xpyriment,legacy,legacy,0,45,1,411,OSWeb experiment,uniform,undefined,69,34,34,0,0,34,34,34,34,0,0,0,34,0,1,0,0,,Fri Nov 15 2019 10:33:41 GMT+0100 (Central European Standard Time),890,2864,The main experiment item,yes,1675,,/Users/rijn/Downloads,no,mono,no,18,no,white,no,no,None,null,768,legacy,xpyriment,osweb,1.3.3,space,space,,space,,958,23132,,958,,2,legacy,,1573810423788,1024,2,48000,-16,experiment,45,411,TimingLong,999999999,odd,,239876,238009,236327,69,,233452,238912,238912,69,69,239876,23211,,TimingLong,0,33321,35,yes,8,1024,482
0,0,953,953,black,48,Default,no,1,,xpyriment,legacy,legacy,0,45,1,411,OSWeb experiment,uniform,undefined,71,35,35,0,0,35,35,35,35,0,0,0,35,0,1,0,0,,Fri Nov 15 2019 10:33:41 GMT+0100 (Central European Standard Time),727,2772,The main experiment item,yes,1535,,/Users/rijn/Downloads,no,mono,no,18,no,white,no,no,None,null,768,legacy,xpyriment,osweb,1.3.3,space,space,,space,,998,23132,,998,,2,legacy,,1573810423788,1024,2,48000,-16,experiment,45,411,TimingLong,999999999,odd,,245959,244225,242676,69,,239888,244960,244960,69,69,245959,23211,,TimingLong,0,34319,36,yes,8,1024,482
0,0,951,951,black,48,Default,no,1,,xpyriment,legacy,legacy,0,45,1,411,OSWeb experiment,uniform,undefined,73,36,36,0,0,36,36,36,36,0,0,0,36,0,1,0,0,,Fri Nov 15 2019 10:33:41 GMT+0100 (Central European Standard Time),733,2959,The main experiment item,yes,1535,,/Users/rijn/Downloads,no,mono,no,18,no,white,no,no,None,null,768,legacy,xpyriment,osweb,1.3.3,space,space,,space,,851,23132,,851,,2,legacy,,1573810423788,1024,2,48000,-16,experiment,45,411,TimingLong,999999999,odd,,252092,250491,248943,69,,245969,251226,251227,69,69,252092,23211,,TimingLong,0,35170,37,yes,8,1024,482
0,0,954,954,black,48,Default,no,1,,xpyriment,legacy,legacy,0,45,1,411,OSWeb experiment,uniform,undefined,75,37,37,0,0,37,37,37,37,0,0,0,37,0,1,0,0,,Fri Nov 15 2019 10:33:41 GMT+0100 (Central European Standard Time),840,2808,The main experiment item,yes,1395,,/Users/rijn/Downloads,no,mono,no,18,no,white,no,no,None,null,768,legacy,xpyriment,osweb,1.3.3,space,space,,space,,1077,23132,,1077,,2,legacy,,1573810423788,1024,2,48000,-16,experiment,45,411,TimingLong,999999999,odd,,258259,256325,254927,69,,252102,257176,257177,69,69,258259,23211,,TimingLong,0,36247,38,yes,8,1024,482
0,0,966,966,black,48,Default,no,1,,xpyriment,legacy,legacy,0,45,1,411,OSWeb experiment,uniform,undefined,77,38,38,0,0,38,38,38,38,0,0,0,38,0,1,0,0,,Fri Nov 15 2019 10:33:41 GMT+0100 (Central European Standard Time),780,3030,The main experiment item,yes,1265,,/Users/rijn/Downloads,no,mono,no,18,no,white,no,no,None,null,768,legacy,xpyriment,osweb,1.3.3,space,space,,space,,1437,23132,,1437,,2,legacy,,1573810423788,1024,2,48000,-16,experiment,45,411,TimingLong,999999999,odd,,264825,262592,261310,69,,258269,263377,263377,69,69,264825,23211,,TimingLong,0,37684,39,yes,8,1024,482
0,0,971,971,black,48,Default,no,1,,xpyriment,legacy,legacy,0,45,1,411,OSWeb experiment,uniform,undefined,79,39,39,0,0,39,39,39,39,0,0,0,39,0,1,0,0,,Fri Nov 15 2019 10:33:41 GMT+0100 (Central European Standard Time),779,2764,The main experiment item,yes,1165,,/Users/rijn/Downloads,no,mono,no,18,no,white,no,no,None,null,768,legacy,xpyriment,osweb,1.3.3,space,space,,space,,1149,23132,,1149,,2,legacy,,1573810423788,1024,2,48000,-16,experiment,45,411,TimingLong,999999999,odd,,270726,268793,267610,69,,264836,269576,269577,69,69,270727,23211,,TimingLong,0,38833,40,yes,8,1024,482
0,0,973,973,black,48,Default,no,1,,xpyriment,legacy,legacy,0,45,1,411,OSWeb experiment,uniform,undefined,81,40,40,0,0,40,40,40,40,0,0,0,40,0,1,0,0,,Fri Nov 15 2019 10:33:41 GMT+0100 (Central European Standard Time),784,3041,The main experiment item,yes,1265,,/Users/rijn/Downloads,no,mono,no,18,no,white,no,no,None,null,768,legacy,xpyriment,osweb,1.3.3,space,space,,space,,1074,23132,,1074,,2,legacy,,1573810423788,1024,2,48000,-16,experiment,45,411,TimingLong,999999999,odd,,276959,275076,273793,69,,270742,275876,275876,69,69,276959,23211,,TimingLong,0,39907,41,yes,8,1024,482
0,0,979,979,black,48,Default,no,1,,xpyriment,legacy,legacy,0,45,1,411,OSWeb experiment,uniform,undefined,83,41,41,0,0,41,41,41,41,0,0,0,41,0,1,0,0,,Fri Nov 15 2019 10:33:41 GMT+0100 (Central European Standard Time),735,2942,The main experiment item,yes,1535,,/Users/rijn/Downloads,no,mono,no,18,no,white,no,no,None,null,768,legacy,xpyriment,osweb,1.3.3,space,space,,space,,1212,23132,,1212,,2,legacy,,1573810423788,1024,2,48000,-16,experiment,45,411,TimingLong,999999999,odd,,283442,281475,279931,69,,276971,282226,282226,69,69,283442,23211,,TimingLong,0,41119,42,yes,8,1024,482
0,0,981,981,black,48,Default,no,1,,xpyriment,legacy,legacy,0,45,1,411,OSWeb experiment,uniform,undefined,85,42,42,0,0,42,42,42,42,0,0,0,42,0,1,0,0,,Fri Nov 15 2019 10:33:41 GMT+0100 (Central European Standard Time),748,3027,The main experiment item,yes,1535,,/Users/rijn/Downloads,no,mono,no,18,no,white,no,no,None,null,768,legacy,xpyriment,osweb,1.3.3,space,space,,space,,1061,23132,,1061,,2,legacy,,1573810423788,1024,2,48000,-16,experiment,45,411,TimingLong,999999999,odd,,289858,288043,286495,69,,283452,288793,288793,69,69,289858,23211,,TimingLong,0,42180,43,yes,8,1024,482
0,0,983,983,black,48,Default,no,1,,xpyriment,legacy,legacy,0,45,1,411,OSWeb experiment,uniform,undefined,87,43,43,0,0,43,43,43,43,0,0,0,43,0,1,0,0,,Fri Nov 15 2019 10:33:41 GMT+0100 (Central European Standard Time),736,2928,The main experiment item,yes,1265,,/Users/rijn/Downloads,no,mono,no,18,no,white,no,no,None,null,768,legacy,xpyriment,osweb,1.3.3,space,space,,space,,1059,23132,,1059,,2,legacy,,1573810423788,1024,2,48000,-16,experiment,45,411,TimingLong,999999999,odd,,295892,294076,292809,69,,289868,294827,294827,69,69,295892,23211,,TimingLong,0,43239,44,yes,8,1024,482
0,0,998,998,black,48,Default,no,1,,xpyriment,legacy,legacy,0,45,1,411,OSWeb experiment,uniform,undefined,89,44,44,0,0,44,44,44,44,0,0,0,44,0,1,0,0,,Fri Nov 15 2019 10:33:41 GMT+0100 (Central European Standard Time),762,3028,The main experiment item,yes,1675,,/Users/rijn/Downloads,no,mono,no,18,no,white,no,no,None,null,768,legacy,xpyriment,osweb,1.3.3,space,space,,space,,1660,23132,,1660,,2,legacy,,1573810423788,1024,2,48000,-16,experiment,45,411,TimingLong,999999999,odd,,303059,300625,298943,69,,295901,301393,301393,69,69,303059,23211,,TimingLong,0,44899,45,yes,8,1024,482
0,0,1005,1005,black,48,Default,no,1,,xpyriment,legacy,legacy,0,45,1,411,OSWeb experiment,uniform,undefined,91,45,45,0,0,45,45,45,45,0,0,0,45,0,1,0,0,,Fri Nov 15 2019 10:33:41 GMT+0100 (Central European Standard Time),702,3043,The main experiment item,yes,1535,,/Users/rijn/Downloads,no,mono,no,18,no,white,no,no,None,null,768,legacy,xpyriment,osweb,1.3.3,space,space,,space,,1324,23132,,1324,,2,legacy,,1573810423788,1024,2,48000,-16,experiment,45,411,TimingLong,999999999,odd,,309725,307676,306127,69,,303071,308393,308394,69,69,309725,23211,,TimingLong,0,46223,46,yes,8,1024,482
0,0,1009,1009,black,48,Default,no,1,,xpyriment,legacy,legacy,0,45,1,411,OSWeb experiment,uniform,undefined,93,46,46,0,0,46,46,46,46,0,0,0,46,0,1,0,0,,Fri Nov 15 2019 10:33:41 GMT+0100 (Central European Standard Time),880,2830,The main experiment item,yes,1535,,/Users/rijn/Downloads,no,mono,no,18,no,white,no,no,None,null,768,legacy,xpyriment,osweb,1.3.3,space,space,,space,,1212,23132,,1212,,2,legacy,,1573810423788,1024,2,48000,-16,experiment,45,411,TimingLong,999999999,odd,,316226,314126,312579,69,,309736,315010,315010,69,69,316226,23211,,TimingLong,0,47435,47,yes,8,1024,482
0,0,1014,1014,black,48,Default,no,1,,xpyriment,legacy,legacy,0,45,1,411,OSWeb experiment,uniform,undefined,95,47,47,0,0,47,47,47,47,0,0,0,47,0,1,0,0,,Fri Nov 15 2019 10:33:41 GMT+0100 (Central European Standard Time),869,2797,The main experiment item,yes,1675,,/Users/rijn/Downloads,no,mono,no,18,no,white,no,no,None,null,768,legacy,xpyriment,osweb,1.3.3,space,space,,space,,1260,23132,,1260,,2,legacy,,1573810423788,1024,2,48000,-16,experiment,45,411,TimingLong,999999999,odd,,322875,320726,319043,69,,316235,321610,321610,69,69,322875,23211,,TimingLong,0,48695,48,yes,8,1024,482
0,0,1012,1012,black,48,Default,no,1,,xpyriment,legacy,legacy,0,45,1,411,OSWeb experiment,uniform,undefined,97,48,48,0,0,48,48,48,48,0,0,0,48,0,1,0,0,,Fri Nov 15 2019 10:33:41 GMT+0100 (Central European Standard Time),810,3104,The main experiment item,yes,1395,,/Users/rijn/Downloads,no,mono,no,18,no,white,no,no,None,null,768,legacy,xpyriment,osweb,1.3.3,space,space,,space,,907,23132,,907,,2,legacy,,1573810423788,1024,2,48000,-16,experiment,45,411,TimingLong,999999999,odd,,329126,327393,325993,69,,322885,328210,328210,69,69,329126,23211,,TimingLong,0,49602,49,yes,8,1024,482
0,0,1008,1008,black,48,Default,no,1,,xpyriment,legacy,legacy,0,45,1,411,OSWeb experiment,uniform,undefined,99,49,49,0,0,49,49,49,49,0,0,0,49,0,1,0,0,,Fri Nov 15 2019 10:33:41 GMT+0100 (Central European Standard Time),705,2879,The main experiment item,yes,1165,,/Users/rijn/Downloads,no,mono,no,18,no,white,no,no,None,null,768,legacy,xpyriment,osweb,1.3.3,space,space,,space,,783,23132,,783,,2,legacy,,1573810423788,1024,2,48000,-16,experiment,45,411,TimingLong,999999999,odd,,334709,333192,332026,69,,329139,333910,333911,69,69,334709,23211,,TimingLong,0,50385,50,yes,8,1024,482
0,0,1020,1020,black,48,Default,no,1,,xpyriment,legacy,legacy,0,45,1,411,OSWeb experiment,uniform,undefined,101,50,50,0,0,50,50,50,50,0,0,0,50,0,1,0,0,,Fri Nov 15 2019 10:33:41 GMT+0100 (Central European Standard Time),736,2958,The main experiment item,yes,1165,,/Users/rijn/Downloads,no,mono,no,18,no,white,no,no,None,null,768,legacy,xpyriment,osweb,1.3.3,space,space,,space,,1617,23132,,1617,,2,legacy,,1573810423788,1024,2,48000,-16,experiment,45,411,TimingLong,999999999,odd,,341242,338860,337693,69,,334719,339613,339613,69,69,341242,23211,,TimingLong,0,52002,51,yes,8,1024,482
0,0,1021,1021,black,48,Default,no,1,,xpyriment,legacy,legacy,0,45,1,411,OSWeb experiment,uniform,undefined,103,51,51,0,0,51,51,51,51,0,0,0,51,0,1,0,0,,Fri Nov 15 2019 10:33:41 GMT+0100 (Central European Standard Time),772,2804,The main experiment item,yes,1395,,/Users/rijn/Downloads,no,mono,no,18,no,white,no,no,None,null,768,legacy,xpyriment,osweb,1.3.3,space,space,,space,,1082,23132,,1082,,2,legacy,,1573810423788,1024,2,48000,-16,experiment,45,411,TimingLong,999999999,odd,,347327,345460,344060,69,,341253,346244,346244,69,69,347327,23211,,TimingLong,0,53084,52,yes,8,1024,482
0,0,1024,1024,black,48,Default,no,1,,xpyriment,legacy,legacy,0,45,1,411,OSWeb experiment,uniform,undefined,105,52,52,0,0,52,52,52,52,0,0,0,52,0,1,0,0,,Fri Nov 15 2019 10:33:41 GMT+0100 (Central European Standard Time),864,2951,The main experiment item,yes,1675,,/Users/rijn/Downloads,no,mono,no,18,no,white,no,no,None,null,768,legacy,xpyriment,osweb,1.3.3,space,space,,space,,1195,23132,,1195,,2,legacy,,1573810423788,1024,2,48000,-16,experiment,45,411,TimingLong,999999999,odd,,354042,351976,350293,69,,347337,352842,352842,69,69,354042,23211,,TimingLong,0,54279,53,yes,8,1024,482
0,0,1020,1020,black,48,Default,no,1,,xpyriment,legacy,legacy,0,45,1,411,OSWeb experiment,uniform,undefined,107,53,53,0,0,53,53,53,53,0,0,0,53,0,1,0,0,,Fri Nov 15 2019 10:33:41 GMT+0100 (Central European Standard Time),795,2865,The main experiment item,yes,1265,,/Users/rijn/Downloads,no,mono,no,18,no,white,no,no,None,null,768,legacy,xpyriment,osweb,1.3.3,space,space,,space,,804,23132,,804,,2,legacy,,1573810423788,1024,2,48000,-16,experiment,45,411,TimingLong,999999999,odd,,359826,358210,356927,69,,354054,359010,359010,69,69,359826,23211,,TimingLong,0,55083,54,yes,8,1024,482
0,0,1026,1026,black,48,Default,no,1,,xpyriment,legacy,legacy,0,45,1,411,OSWeb experiment,uniform,undefined,109,54,54,0,0,54,54,54,54,0,0,0,54,0,1,0,0,,Fri Nov 15 2019 10:33:41 GMT+0100 (Central European Standard Time),804,2830,The main experiment item,yes,1675,,/Users/rijn/Downloads,no,mono,no,18,no,white,no,no,None,null,768,legacy,xpyriment,osweb,1.3.3,space,space,,space,,1353,23132,,1353,,2,legacy,,1573810423788,1024,2,48000,-16,experiment,45,411,TimingLong,999999999,odd,,366543,364359,362678,69,,359841,365180,365180,69,69,366543,23211,,TimingLong,0,56436,55,yes,8,1024,482
0,0,1022,1022,black,48,Default,no,1,,xpyriment,legacy,legacy,0,45,1,411,OSWeb experiment,uniform,undefined,111,55,55,0,0,55,55,55,55,0,0,0,55,0,1,0,0,,Fri Nov 15 2019 10:33:41 GMT+0100 (Central European Standard Time),880,2994,The main experiment item,yes,1165,,/Users/rijn/Downloads,no,mono,no,18,no,white,no,no,None,null,768,legacy,xpyriment,osweb,1.3.3,space,space,,space,,771,23132,,771,,2,legacy,,1573810423788,1024,2,48000,-16,experiment,45,411,TimingLong,999999999,odd,,372409,370743,369560,69,,366552,371627,371627,69,69,372409,23211,,TimingLong,0,57207,56,yes,8,1024,482
0,0,1017,1017,black,48,Default,no,1,,xpyriment,legacy,legacy,0,45,1,411,OSWeb experiment,uniform,undefined,113,56,56,0,0,56,56,56,56,0,0,0,56,0,1,0,0,,Fri Nov 15 2019 10:33:41 GMT+0100 (Central European Standard Time),835,3097,The main experiment item,yes,1165,,/Users/rijn/Downloads,no,mono,no,18,no,white,no,no,None,null,768,legacy,xpyriment,osweb,1.3.3,space,space,,space,,789,23132,,789,,2,legacy,,1573810423788,1024,2,48000,-16,experiment,45,411,TimingLong,999999999,odd,,378343,376694,375527,69,,372419,377544,377544,69,69,378343,23211,,TimingLong,0,57996,57,yes,8,1024,482
0,0,1016,1016,black,48,Default,no,1,,xpyriment,legacy,legacy,0,45,1,411,OSWeb experiment,uniform,undefined,115,57,57,0,0,57,57,57,57,0,0,0,57,0,1,0,0,,Fri Nov 15 2019 10:33:41 GMT+0100 (Central European Standard Time),771,3219,The main experiment item,yes,1535,,/Users/rijn/Downloads,no,mono,no,18,no,white,no,no,None,null,768,legacy,xpyriment,osweb,1.3.3,space,space,,space,,911,23132,,911,,2,legacy,,1573810423788,1024,2,48000,-16,experiment,45,411,TimingLong,999999999,odd,,384827,383127,381577,69,,378354,383911,383911,69,69,384827,23211,,TimingLong,0,58907,58,yes,8,1024,482
0,0,1013,1013,black,48,Default,no,1,,xpyriment,legacy,legacy,0,45,1,411,OSWeb experiment,uniform,undefined,117,58,58,0,0,58,58,58,58,0,0,0,58,0,1,0,0,,Fri Nov 15 2019 10:33:41 GMT+0100 (Central European Standard Time),754,2834,The main experiment item,yes,1395,,/Users/rijn/Downloads,no,mono,no,18,no,white,no,no,None,null,768,legacy,xpyriment,osweb,1.3.3,space,space,,space,,834,23132,,834,,2,legacy,,1573810423788,1024,2,48000,-16,experiment,45,411,TimingLong,999999999,odd,,390693,389077,387677,69,,384836,389843,389843,69,69,390693,23211,,TimingLong,0,59741,59,yes,8,1024,482
0,0,1010,1010,black,48,Default,no,1,,xpyriment,legacy,legacy,0,45,1,411,OSWeb experiment,uniform,undefined,119,59,59,0,0,59,59,59,59,0,0,0,59,0,1,0,0,,Fri Nov 15 2019 10:33:41 GMT+0100 (Central European Standard Time),762,2889,The main experiment item,yes,1265,,/Users/rijn/Downloads,no,mono,no,18,no,white,no,no,None,null,768,legacy,xpyriment,osweb,1.3.3,space,space,,space,,849,23132,,849,,2,legacy,,1573810423788,1024,2,48000,-16,experiment,45,411,TimingLong,999999999,odd,,396510,394877,393610,69,,390705,395643,395644,69,69,396510,23211,,TimingLong,0,60590,60,yes,8,1024,482
0,0,1023,1023,black,48,Default,no,1,,xpyriment,legacy,legacy,0,45,1,411,OSWeb experiment,uniform,undefined,121,60,60,0,0,60,60,60,60,0,0,0,60,0,1,0,0,,Fri Nov 15 2019 10:33:41 GMT+0100 (Central European Standard Time),889,2761,The main experiment item,yes,1675,,/Users/rijn/Downloads,no,mono,no,18,no,white,no,no,None,null,768,legacy,xpyriment,osweb,1.3.3,space,space,,space,,1792,23132,,1792,,2,legacy,,1573810423788,1024,2,48000,-16,experiment,45,411,TimingLong,999999999,odd,,403676,400977,399294,69,,396523,401877,401877,69,69,403676,23211,,TimingLong,0,62382,61,yes,8,1024,482
0,0,1023,1023,black,48,Default,no,1,,xpyriment,legacy,legacy,0,45,1,411,OSWeb experiment,uniform,undefined,123,61,61,0,0,61,61,61,61,0,0,0,61,0,1,0,0,,Fri Nov 15 2019 10:33:41 GMT+0100 (Central European Standard Time),846,2919,The main experiment item,yes,1675,,/Users/rijn/Downloads,no,mono,no,18,no,white,no,no,None,null,768,legacy,xpyriment,osweb,1.3.3,space,space,,space,,1021,23132,,1021,,2,legacy,,1573810423788,1024,2,48000,-16,experiment,45,411,TimingLong,999999999,odd,,410193,408310,406627,69,,403695,409161,409161,69,69,410193,23211,,TimingLong,0,63403,62,yes,8,1024,482
0,0,1028,1028,black,48,Default,no,1,,xpyriment,legacy,legacy,0,45,1,411,OSWeb experiment,uniform,undefined,125,62,62,0,0,62,62,62,62,0,0,0,62,0,1,0,0,,Fri Nov 15 2019 10:33:41 GMT+0100 (Central European Standard Time),782,2887,The main experiment item,yes,1675,,/Users/rijn/Downloads,no,mono,no,18,no,white,no,no,None,null,768,legacy,xpyriment,osweb,1.3.3,space,space,,space,,1349,23132,,1349,,2,legacy,,1573810423788,1024,2,48000,-16,experiment,45,411,TimingLong,999999999,odd,,416911,414776,413094,69,,410202,415561,415561,69,69,416911,23211,,TimingLong,0,64752,63,yes,8,1024,482
0,0,1027,1027,black,48,Default,no,1,,xpyriment,legacy,legacy,0,45,1,411,OSWeb experiment,uniform,undefined,127,63,63,0,0,63,63,63,63,0,0,0,63,0,1,0,0,,Fri Nov 15 2019 10:33:41 GMT+0100 (Central European Standard Time),758,2973,The main experiment item,yes,1165,,/Users/rijn/Downloads,no,mono,no,18,no,white,no,no,None,null,768,legacy,xpyriment,osweb,1.3.3,space,space,,space,,945,23132,,945,,2,legacy,,1573810423788,1024,2,48000,-16,experiment,45,411,TimingLong,999999999,odd,,422810,421094,419913,69,,416921,421860,421861,69,69,422810,23211,,TimingLong,0,65697,64,yes,8,1024,482
0,0,1025,1025,black,48,Default,no,1,,xpyriment,legacy,legacy,0,45,1,411,OSWeb experiment,uniform,undefined,129,64,64,0,0,64,64,64,64,0,0,0,64,0,1,0,0,,Fri Nov 15 2019 10:33:41 GMT+0100 (Central European Standard Time),795,3076,The main experiment item,yes,1675,,/Users/rijn/Downloads,no,mono,no,18,no,white,no,no,None,null,768,legacy,xpyriment,osweb,1.3.3,space,space,,space,,931,23132,,931,,2,legacy,,1573810423788,1024,2,48000,-16,experiment,45,411,TimingLong,999999999,odd,,429327,427593,425911,69,,422820,428394,428394,69,69,429327,23211,,TimingLong,0,66628,65,yes,8,1024,482
0,0,1022,1022,black,48,Default,no,1,,xpyriment,legacy,legacy,0,45,1,411,OSWeb experiment,uniform,undefined,131,65,65,0,0,65,65,65,65,0,0,0,65,0,1,0,0,,Fri Nov 15 2019 10:33:41 GMT+0100 (Central European Standard Time),725,3154,The main experiment item,yes,1165,,/Users/rijn/Downloads,no,mono,no,18,no,white,no,no,None,null,768,legacy,xpyriment,osweb,1.3.3,space,space,,space,,803,23132,,803,,2,legacy,,1573810423788,1024,2,48000,-16,experiment,45,411,TimingLong,999999999,odd,,435226,433677,432495,69,,429338,434410,434410,69,69,435226,23211,,TimingLong,0,67431,66,yes,8,1024,482
0,0,1022,1022,black,48,Default,no,1,,xpyriment,legacy,legacy,0,45,1,411,OSWeb experiment,uniform,undefined,133,66,66,0,0,66,66,66,66,0,0,0,66,0,1,0,0,,Fri Nov 15 2019 10:33:41 GMT+0100 (Central European Standard Time),858,2778,The main experiment item,yes,1265,,/Users/rijn/Downloads,no,mono,no,18,no,white,no,no,None,null,768,legacy,xpyriment,osweb,1.3.3,space,space,,space,,1052,23132,,1052,,2,legacy,,1573810423788,1024,2,48000,-16,experiment,45,411,TimingLong,999999999,odd,,441227,439294,438027,69,,435236,440161,440161,69,69,441227,23211,,TimingLong,0,68483,67,yes,8,1024,482
0,0,1023,1023,black,48,Default,no,1,,xpyriment,legacy,legacy,0,45,1,411,OSWeb experiment,uniform,undefined,135,67,67,0,0,67,67,67,67,0,0,0,67,0,1,0,0,,Fri Nov 15 2019 10:33:41 GMT+0100 (Central European Standard Time),892,2985,The main experiment item,yes,1395,,/Users/rijn/Downloads,no,mono,no,18,no,white,no,no,None,null,768,legacy,xpyriment,osweb,1.3.3,space,space,,space,,1071,23132,,1071,,2,legacy,,1573810423788,1024,2,48000,-16,experiment,45,411,TimingLong,999999999,odd,,447610,445629,444228,69,,441237,446527,446527,69,69,447610,23211,,TimingLong,0,69554,68,yes,8,1024,482
0,0,1026,1026,black,48,Default,no,1,,xpyriment,legacy,legacy,0,45,1,411,OSWeb experiment,uniform,undefined,137,68,68,0,0,68,68,68,68,0,0,0,68,0,1,0,0,,Fri Nov 15 2019 10:33:41 GMT+0100 (Central European Standard Time),853,2961,The main experiment item,yes,1395,,/Users/rijn/Downloads,no,mono,no,18,no,white,no,no,None,null,768,legacy,xpyriment,osweb,1.3.3,space,space,,space,,1250,23132,,1250,,2,legacy,,1573810423788,1024,2,48000,-16,experiment,45,411,TimingLong,999999999,odd,,454111,451994,450594,69,,447619,452860,452860,69,69,454111,23211,,TimingLong,0,70804,69,yes,8,1024,482
0,0,1032,1032,black,48,Default,no,1,,xpyriment,legacy,legacy,0,45,1,411,OSWeb experiment,uniform,undefined,139,69,69,0,0,69,69,69,69,0,0,0,69,0,1,0,0,,Fri Nov 15 2019 10:33:41 GMT+0100 (Central European Standard Time),747,2958,The main experiment item,yes,1535,,/Users/rijn/Downloads,no,mono,no,18,no,white,no,no,None,null,768,legacy,xpyriment,osweb,1.3.3,space,space,,space,,1403,23132,,1403,,2,legacy,,1573810423788,1024,2,48000,-16,experiment,45,411,TimingLong,999999999,odd,,460810,458643,457094,69,,454123,459394,459394,69,69,460810,23211,,TimingLong,0,72207,70,yes,8,1024,482
0,0,1037,1037,black,48,Default,no,1,,xpyriment,legacy,legacy,0,45,1,411,OSWeb experiment,uniform,undefined,141,70,70,0,0,70,70,70,70,0,0,0,70,0,1,0,0,,Fri Nov 15 2019 10:33:41 GMT+0100 (Central European Standard Time),760,3160,The main experiment item,yes,1395,,/Users/rijn/Downloads,no,mono,no,18,no,white,no,no,None,null,768,legacy,xpyriment,osweb,1.3.3,space,space,,space,,1395,23132,,1395,,2,legacy,,1573810423788,1024,2,48000,-16,experiment,45,411,TimingLong,999999999,odd,,467560,465394,463995,69,,460820,466162,466162,69,69,467560,23211,,TimingLong,0,73602,71,yes,8,1024,482
0,0,1039,1039,black,48,Default,no,1,,xpyriment,legacy,legacy,0,45,1,411,OSWeb experiment,uniform,undefined,143,71,71,0,0,71,71,71,71,0,0,0,71,0,1,0,0,,Fri Nov 15 2019 10:33:41 GMT+0100 (Central European Standard Time),802,3121,The main experiment item,yes,1535,,/Users/rijn/Downloads,no,mono,no,18,no,white,no,no,None,null,768,legacy,xpyriment,osweb,1.3.3,space,space,,space,,1222,23132,,1222,,2,legacy,,1573810423788,1024,2,48000,-16,experiment,45,411,TimingLong,999999999,odd,,474293,472244,470694,69,,467570,473063,473063,69,69,474293,23211,,TimingLong,0,74824,72,yes,8,1024,482
0,0,1041,1041,black,48,Default,no,1,,xpyriment,legacy,legacy,0,45,1,411,OSWeb experiment,uniform,undefined,145,72,72,0,0,72,72,72,72,0,0,0,72,0,1,0,0,,Fri Nov 15 2019 10:33:41 GMT+0100 (Central European Standard Time),706,2802,The main experiment item,yes,1395,,/Users/rijn/Downloads,no,mono,no,18,no,white,no,no,None,null,768,legacy,xpyriment,osweb,1.3.3,space,space,,space,,1177,23132,,1177,,2,legacy,,1573810423788,1024,2,48000,-16,experiment,45,411,TimingLong,999999999,odd,,480410,478511,477111,69,,474301,479228,479228,69,69,480410,23211,,TimingLong,0,76001,73,yes,8,1024,482
0,0,1040,1040,black,48,Default,no,1,,xpyriment,legacy,legacy,0,45,1,411,OSWeb experiment,uniform,undefined,147,73,73,0,0,73,73,73,73,0,0,0,73,0,1,0,0,,Fri Nov 15 2019 10:33:41 GMT+0100 (Central European Standard Time),729,3246,The main experiment item,yes,1395,,/Users/rijn/Downloads,no,mono,no,18,no,white,no,no,None,null,768,legacy,xpyriment,osweb,1.3.3,space,space,,space,,930,23132,,930,,2,legacy,,1573810423788,1024,2,48000,-16,experiment,45,411,TimingLong,999999999,odd,,486744,485077,483680,69,,480420,485811,485811,69,69,486744,23211,,TimingLong,0,76931,74,yes,8,1024,482
0,0,1041,1041,black,48,Default,no,1,,xpyriment,legacy,legacy,0,45,1,411,OSWeb experiment,uniform,undefined,149,74,74,0,0,74,74,74,74,0,0,0,74,0,1,0,0,,Fri Nov 15 2019 10:33:41 GMT+0100 (Central European Standard Time),862,2793,The main experiment item,yes,1675,,/Users/rijn/Downloads,no,mono,no,18,no,white,no,no,None,null,768,legacy,xpyriment,osweb,1.3.3,space,space,,space,,1133,23132,,1133,,2,legacy,,1573810423788,1024,2,48000,-16,experiment,45,411,TimingLong,999999999,odd,,493260,491245,489562,69,,486753,492112,492112,69,69,493260,23211,,TimingLong,0,78064,75,yes,8,1024,482
0,0,1041,1041,black,48,Default,no,1,,xpyriment,legacy,legacy,0,45,1,411,OSWeb experiment,uniform,undefined,151,75,75,0,0,75,75,75,75,0,0,0,75,0,1,0,0,,Fri Nov 15 2019 10:33:41 GMT+0100 (Central European Standard Time),761,3128,The main experiment item,yes,1165,,/Users/rijn/Downloads,no,mono,no,18,no,white,no,no,None,null,768,legacy,xpyriment,osweb,1.3.3,space,space,,space,,1036,23132,,1036,,2,legacy,,1573810423788,1024,2,48000,-16,experiment,45,411,TimingLong,999999999,odd,,499410,497594,496412,69,,493271,498362,498362,69,69,499410,23211,,TimingLong,0,79100,76,yes,8,1024,482
0,0,1037,1037,black,48,Default,no,1,,xpyriment,legacy,legacy,0,45,1,411,OSWeb experiment,uniform,undefined,153,76,76,0,0,76,76,76,76,0,0,0,76,0,1,0,0,,Fri Nov 15 2019 10:33:41 GMT+0100 (Central European Standard Time),877,2866,The main experiment item,yes,1265,,/Users/rijn/Downloads,no,mono,no,18,no,white,no,no,None,null,768,legacy,xpyriment,osweb,1.3.3,space,space,,space,,784,23132,,784,,2,legacy,,1573810423788,1024,2,48000,-16,experiment,45,411,TimingLong,999999999,odd,,505261,503578,502297,69,,499420,504469,504469,69,69,505261,23211,,TimingLong,0,79884,77,yes,8,1024,482
0,0,1037,1037,black,48,Default,no,1,,xpyriment,legacy,legacy,0,45,1,411,OSWeb experiment,uniform,undefined,155,77,77,0,0,77,77,77,77,0,0,0,77,0,1,0,0,,Fri Nov 15 2019 10:33:41 GMT+0100 (Central European Standard Time),831,3064,The main experiment item,yes,1395,,/Users/rijn/Downloads,no,mono,no,18,no,white,no,no,None,null,768,legacy,xpyriment,osweb,1.3.3,space,space,,space,,979,23132,,979,,2,legacy,,1573810423788,1024,2,48000,-16,experiment,45,411,TimingLong,999999999,odd,,511560,509744,508347,69,,505270,510578,510578,69,69,511560,23211,,TimingLong,0,80863,78,yes,8,1024,482
0,0,1038,1038,black,48,Default,no,1,,xpyriment,legacy,legacy,0,45,1,411,OSWeb experiment,uniform,undefined,157,78,78,0,0,78,78,78,78,0,0,0,78,0,1,0,0,,Fri Nov 15 2019 10:33:41 GMT+0100 (Central European Standard Time),841,3188,The main experiment item,yes,1535,,/Users/rijn/Downloads,no,mono,no,18,no,white,no,no,None,null,768,legacy,xpyriment,osweb,1.3.3,space,space,,space,,1172,23132,,1172,,2,legacy,,1573810423788,1024,2,48000,-16,experiment,45,411,TimingLong,999999999,odd,,518344,516311,514762,69,,511570,517161,517161,69,69,518344,23211,,TimingLong,0,82035,79,yes,8,1024,482
0,0,1037,1037,black,48,Default,no,1,,xpyriment,legacy,legacy,0,45,1,411,OSWeb experiment,uniform,undefined,159,79,79,0,0,79,79,79,79,0,0,0,79,0,1,0,0,,Fri Nov 15 2019 10:33:41 GMT+0100 (Central European Standard Time),872,2829,The main experiment item,yes,1265,,/Users/rijn/Downloads,no,mono,no,18,no,white,no,no,None,null,768,legacy,xpyriment,osweb,1.3.3,space,space,,space,,892,23132,,892,,2,legacy,,1573810423788,1024,2,48000,-16,experiment,45,411,TimingLong,999999999,odd,,524261,522478,521195,69,,518354,523361,523361,69,69,524261,23211,,TimingLong,0,82927,80,yes,8,1024,482
0,0,1041,1041,black,48,Default,no,2,,xpyriment,legacy,legacy,0,45,1,411,OSWeb experiment,uniform,undefined,161,80,80,0,0,80,80,80,80,0,0,0,80,0,1,0,0,,Fri Nov 15 2019 10:33:41 GMT+0100 (Central European Standard Time),892,2891,The main experiment item,yes,1535,,/Users/rijn/Downloads,no,mono,no,18,no,white,no,no,None,null,768,legacy,xpyriment,osweb,1.3.3,space,space,space,space,space,1412,23132,11518,1412,2962,2,legacy,,1573810423788,1024,2,48000,-16,experiment,45,411,TimingLong,999999999,odd,,545561,543244,541695,69,527247,538785,544145,544145,69,69,545561,538777,524267,TimingLong,0,84339,81,yes,6,1024,482
0,0,1039,1039,black,48,Default,no,2,,xpyriment,legacy,legacy,0,45,1,411,OSWeb experiment,uniform,undefined,163,81,81,0,0,81,81,81,81,0,0,0,81,0,1,0,0,,Fri Nov 15 2019 10:33:41 GMT+0100 (Central European Standard Time),745,3124,The main experiment item,yes,1165,,/Users/rijn/Downloads,no,mono,no,18,no,white,no,no,None,null,768,legacy,xpyriment,osweb,1.3.3,space,space,space,space,space,849,23132,11518,849,2962,2,legacy,,1573810423788,1024,2,48000,-16,experiment,45,411,TimingLong,999999999,odd,,551511,549894,548713,69,527247,545572,550645,550645,69,69,551511,538777,524267,TimingLong,0,85188,82,yes,6,1024,482
0,0,1046,1046,black,48,Default,no,2,,xpyriment,legacy,legacy,0,45,1,411,OSWeb experiment,uniform,undefined,165,82,82,0,0,82,82,82,82,0,0,0,82,0,1,0,0,,Fri Nov 15 2019 10:33:41 GMT+0100 (Central European Standard Time),756,3153,The main experiment item,yes,1265,,/Users/rijn/Downloads,no,mono,no,18,no,white,no,no,None,null,768,legacy,xpyriment,osweb,1.3.3,space,space,space,space,space,1669,23132,11518,1669,2962,2,legacy,,1573810423788,1024,2,48000,-16,experiment,45,411,TimingLong,999999999,odd,,558395,555945,554678,69,527247,551522,556712,556712,69,69,558395,538777,524267,TimingLong,0,86857,83,yes,6,1024,482
0,0,1050,1050,black,48,Default,no,2,,xpyriment,legacy,legacy,0,45,1,411,OSWeb experiment,uniform,undefined,167,83,83,0,0,83,83,83,83,0,0,0,83,0,1,0,0,,Fri Nov 15 2019 10:33:41 GMT+0100 (Central European Standard Time),722,2977,The main experiment item,yes,1675,,/Users/rijn/Downloads,no,mono,no,18,no,white,no,no,None,null,768,legacy,xpyriment,osweb,1.3.3,space,space,space,space,space,1338,23132,11518,1338,2962,2,legacy,,1573810423788,1024,2,48000,-16,experiment,45,411,TimingLong,999999999,odd,,565161,563078,561396,69,527247,558404,563811,563811,69,69,565161,538777,524267,TimingLong,0,88195,84,yes,16,1024,482
0,0,1052,1052,black,48,Default,no,2,,xpyriment,legacy,legacy,0,45,1,411,OSWeb experiment,uniform,undefined,169,84,84,0,0,84,84,84,84,0,0,0,84,0,1,0,0,,Fri Nov 15 2019 10:33:41 GMT+0100 (Central European Standard Time),757,3245,The main experiment item,yes,1395,,/Users/rijn/Downloads,no,mono,no,18,no,white,no,no,None,null,768,legacy,xpyriment,osweb,1.3.3,space,space,space,space,space,1249,23132,11518,1249,2962,2,legacy,,1573810423788,1024,2,48000,-16,experiment,45,411,TimingLong,999999999,odd,,571861,569828,568428,69,527247,565173,570596,570596,69,69,571861,538777,524267,TimingLong,0,89444,85,yes,6,1024,482
0,0,1054,1054,black,48,Default,no,2,,xpyriment,legacy,legacy,0,45,1,411,OSWeb experiment,uniform,undefined,171,85,85,0,0,85,85,85,85,0,0,0,85,0,1,0,0,,Fri Nov 15 2019 10:33:41 GMT+0100 (Central European Standard Time),874,3135,The main experiment item,yes,1675,,/Users/rijn/Downloads,no,mono,no,18,no,white,no,no,None,null,768,legacy,xpyriment,osweb,1.3.3,space,space,space,space,space,1185,23132,11518,1185,2962,2,legacy,,1573810423788,1024,2,48000,-16,experiment,45,411,TimingLong,999999999,odd,,578778,576695,575012,69,527247,571873,577580,577580,69,69,578778,538777,524267,TimingLong,0,90629,86,yes,16,1024,482
0,0,1055,1055,black,48,Default,no,2,,xpyriment,legacy,legacy,0,45,1,411,OSWeb experiment,uniform,undefined,173,86,86,0,0,86,86,86,86,0,0,0,86,0,1,0,0,,Fri Nov 15 2019 10:33:41 GMT+0100 (Central European Standard Time),712,2968,The main experiment item,yes,1165,,/Users/rijn/Downloads,no,mono,no,18,no,white,no,no,None,null,768,legacy,xpyriment,osweb,1.3.3,space,space,space,space,space,1159,23132,11518,1159,2962,2,legacy,,1573810423788,1024,2,48000,-16,experiment,45,411,TimingLong,999999999,odd,,584828,582945,581762,69,527247,578788,583662,583662,69,69,584828,538777,524267,TimingLong,0,91788,87,yes,6,1024,482
0,0,1057,1057,black,48,Default,no,2,,xpyriment,legacy,legacy,0,45,1,411,OSWeb experiment,uniform,undefined,175,87,87,0,0,87,87,87,87,0,0,0,87,0,1,0,0,,Fri Nov 15 2019 10:33:41 GMT+0100 (Central European Standard Time),763,2754,The main experiment item,yes,1675,,/Users/rijn/Downloads,no,mono,no,18,no,white,no,no,None,null,768,legacy,xpyriment,osweb,1.3.3,space,space,space,space,space,1207,23132,11518,1207,2962,2,legacy,,1573810423788,1024,2,48000,-16,experiment,45,411,TimingLong,999999999,odd,,591261,589278,587598,69,527247,584837,590046,590046,69,69,591261,538777,524267,TimingLong,0,92995,88,yes,16,1024,482
0,0,1061,1061,black,48,Default,no,2,,xpyriment,legacy,legacy,0,45,1,411,OSWeb experiment,uniform,undefined,177,88,88,0,0,88,88,88,88,0,0,0,88,0,1,0,0,,Fri Nov 15 2019 10:33:41 GMT+0100 (Central European Standard Time),732,2767,The main experiment item,yes,1395,,/Users/rijn/Downloads,no,mono,no,18,no,white,no,no,None,null,768,legacy,xpyriment,osweb,1.3.3,space,space,space,space,space,1434,23132,11518,1434,2962,2,legacy,,1573810423788,1024,2,48000,-16,experiment,45,411,TimingLong,999999999,odd,,597628,595445,594045,69,527247,591271,596179,596179,69,69,597628,538777,524267,TimingLong,0,94429,89,yes,6,1024,482
0,0,1061,1061,black,48,Default,no,2,,xpyriment,legacy,legacy,0,45,1,411,OSWeb experiment,uniform,undefined,179,89,89,0,0,89,89,89,89,0,0,0,89,0,1,0,0,,Fri Nov 15 2019 10:33:41 GMT+0100 (Central European Standard Time),788,2846,The main experiment item,yes,1535,,/Users/rijn/Downloads,no,mono,no,18,no,white,no,no,None,null,768,legacy,xpyriment,osweb,1.3.3,space,space,space,space,space,1056,23132,11518,1056,2962,2,legacy,,1573810423788,1024,2,48000,-16,experiment,45,411,TimingLong,999999999,odd,,603911,602045,600495,69,527247,597637,602845,602845,69,69,603911,538777,524267,TimingLong,0,95485,90,yes,6,1024,482
0,0,1064,1064,black,48,Default,no,2,,xpyriment,legacy,legacy,0,45,1,411,OSWeb experiment,uniform,undefined,181,90,90,0,0,90,90,90,90,0,0,0,90,0,1,0,0,,Fri Nov 15 2019 10:33:41 GMT+0100 (Central European Standard Time),815,2877,The main experiment item,yes,1395,,/Users/rijn/Downloads,no,mono,no,18,no,white,no,no,None,null,768,legacy,xpyriment,osweb,1.3.3,space,space,space,space,space,1384,23132,11518,1384,2962,2,legacy,,1573810423788,1024,2,48000,-16,experiment,45,411,TimingLong,999999999,odd,,610428,608211,606812,69,527247,603924,609029,609029,69,69,610428,538777,524267,TimingLong,0,96869,91,yes,6,1024,482
0,0,1067,1067,black,48,Default,no,2,,xpyriment,legacy,legacy,0,45,1,411,OSWeb experiment,uniform,undefined,183,91,91,0,0,91,91,91,91,0,0,0,91,0,1,0,0,,Fri Nov 15 2019 10:33:41 GMT+0100 (Central European Standard Time),892,2880,The main experiment item,yes,1675,,/Users/rijn/Downloads,no,mono,no,18,no,white,no,no,None,null,768,legacy,xpyriment,osweb,1.3.3,space,space,space,space,space,1318,23132,11518,1318,2962,2,legacy,,1573810423788,1024,2,48000,-16,experiment,45,411,TimingLong,999999999,odd,,617245,615012,613329,69,527247,610438,615911,615911,69,69,617245,538777,524267,TimingLong,0,98187,92,yes,16,1024,482
0,0,1071,1071,black,48,Default,no,2,,xpyriment,legacy,legacy,0,45,1,411,OSWeb experiment,uniform,undefined,185,92,92,0,0,92,92,92,92,0,0,0,92,0,1,0,0,,Fri Nov 15 2019 10:33:41 GMT+0100 (Central European Standard Time),784,3125,The main experiment item,yes,1675,,/Users/rijn/Downloads,no,mono,no,18,no,white,no,no,None,null,768,legacy,xpyriment,osweb,1.3.3,space,space,space,space,space,1374,23132,11518,1374,2962,2,legacy,,1573810423788,1024,2,48000,-16,experiment,45,411,TimingLong,999999999,odd,,624261,622078,620396,69,527247,617256,622879,622879,69,69,624261,538777,524267,TimingLong,0,99561,93,yes,16,1024,482
0,0,1108,1108,black,48,Default,no,2,,xpyriment,legacy,legacy,0,45,1,411,OSWeb experiment,uniform,undefined,187,93,93,0,0,93,93,93,93,0,0,0,93,0,1,0,0,,Fri Nov 15 2019 10:33:41 GMT+0100 (Central European Standard Time),795,3112,The main experiment item,yes,1395,,/Users/rijn/Downloads,no,mono,no,18,no,white,no,no,None,null,768,legacy,xpyriment,osweb,1.3.3,space,space,space,space,space,4569,23132,11518,4569,2962,2,legacy,,1573810423788,1024,2,48000,-16,experiment,45,411,TimingLong,999999999,odd,,634178,628795,627396,69,527247,624272,629595,629596,69,69,634179,538777,524267,TimingLong,0,104130,94,yes,6,1024,482
0,0,1106,1106,black,48,Default,no,2,,xpyriment,legacy,legacy,0,45,1,411,OSWeb experiment,uniform,undefined,189,94,94,0,0,94,94,94,94,0,0,0,94,0,1,0,0,,Fri Nov 15 2019 10:33:41 GMT+0100 (Central European Standard Time),721,3136,The main experiment item,yes,1675,,/Users/rijn/Downloads,no,mono,no,18,no,white,no,no,None,null,768,legacy,xpyriment,osweb,1.3.3,space,space,space,space,space,979,23132,11518,979,2962,2,legacy,,1573810423788,1024,2,48000,-16,experiment,45,411,TimingLong,999999999,odd,,640729,639012,637329,69,527247,634191,639746,639746,69,69,640729,538777,524267,TimingLong,0,105109,95,yes,16,1024,482
0,0,1102,1102,black,48,Default,no,2,,xpyriment,legacy,legacy,0,45,1,411,OSWeb experiment,uniform,undefined,191,95,95,0,0,95,95,95,95,0,0,0,95,0,1,0,0,,Fri Nov 15 2019 10:33:41 GMT+0100 (Central European Standard Time),736,3089,The main experiment item,yes,1265,,/Users/rijn/Downloads,no,mono,no,18,no,white,no,no,None,null,768,legacy,xpyriment,osweb,1.3.3,space,space,space,space,space,662,23132,11518,662,2962,2,legacy,,1573810423788,1024,2,48000,-16,experiment,45,411,TimingLong,999999999,odd,,646529,645112,643845,69,527247,640739,645863,645863,69,69,646529,538777,524267,TimingLong,0,105771,96,yes,6,1024,482
0,0,1101,1101,black,48,Default,no,2,,xpyriment,legacy,legacy,0,45,1,411,OSWeb experiment,uniform,undefined,193,96,96,0,0,96,96,96,96,0,0,0,96,0,1,0,0,,Fri Nov 15 2019 10:33:41 GMT+0100 (Central European Standard Time),759,2786,The main experiment item,yes,1675,,/Users/rijn/Downloads,no,mono,no,18,no,white,no,no,None,null,768,legacy,xpyriment,osweb,1.3.3,space,space,space,space,space,1016,23132,11518,1016,2962,2,legacy,,1573810423788,1024,2,48000,-16,experiment,45,411,TimingLong,999999999,odd,,652828,651028,649346,69,527247,646542,651797,651797,69,69,652829,538777,524267,TimingLong,0,106787,97,yes,16,1024,482
0,0,1101,1101,black,48,Default,no,2,,xpyriment,legacy,legacy,0,45,1,411,OSWeb experiment,uniform,undefined,195,97,97,0,0,97,97,97,97,0,0,0,97,0,1,0,0,,Fri Nov 15 2019 10:33:41 GMT+0100 (Central European Standard Time),796,2848,The main experiment item,yes,1675,,/Users/rijn/Downloads,no,mono,no,18,no,white,no,no,None,null,768,legacy,xpyriment,osweb,1.3.3,space,space,space,space,space,1098,23132,11518,1098,2962,2,legacy,,1573810423788,1024,2,48000,-16,experiment,45,411,TimingLong,999999999,odd,,659278,657379,655696,69,527247,652839,658179,658179,69,69,659278,538777,524267,TimingLong,0,107885,98,yes,16,1024,482
0,0,1098,1098,black,48,Default,no,2,,xpyriment,legacy,legacy,0,45,1,411,OSWeb experiment,uniform,undefined,197,98,98,0,0,98,98,98,98,0,0,0,98,0,1,0,0,,Fri Nov 15 2019 10:33:41 GMT+0100 (Central European Standard Time),761,3043,The main experiment item,yes,1165,,/Users/rijn/Downloads,no,mono,no,18,no,white,no,no,None,null,768,legacy,xpyriment,osweb,1.3.3,space,space,space,space,space,851,23132,11518,851,2962,2,legacy,,1573810423788,1024,2,48000,-16,experiment,45,411,TimingLong,999999999,odd,,665162,663529,662347,69,527247,659288,664298,664298,69,69,665162,538777,524267,TimingLong,0,108736,99,yes,6,1024,482
0,0,1095,1095,black,48,Default,no,2,,xpyriment,legacy,legacy,0,45,1,411,OSWeb experiment,uniform,undefined,199,99,99,0,0,99,99,99,99,0,0,0,99,0,1,0,0,,Fri Nov 15 2019 10:33:41 GMT+0100 (Central European Standard Time),795,3045,The main experiment item,yes,1395,,/Users/rijn/Downloads,no,mono,no,18,no,white,no,no,None,null,768,legacy,xpyriment,osweb,1.3.3,space,space,space,space,space,735,23132,11518,735,2962,2,legacy,,1573810423788,1024,2,48000,-16,experiment,45,411,TimingLong,999999999,odd,,671179,669629,668230,69,527247,665171,670430,670430,69,69,671179,538777,524267,TimingLong,0,109471,100,yes,6,1024,482
0,0,1094,1094,black,48,Default,no,2,,xpyriment,legacy,legacy,0,45,1,411,OSWeb experiment,uniform,undefined,201,100,100,0,0,100,100,100,100,0,0,0,100,0,1,0,0,,Fri Nov 15 2019 10:33:41 GMT+0100 (Central European Standard Time),845,2842,The main experiment item,yes,1395,,/Users/rijn/Downloads,no,mono,no,18,no,white,no,no,None,null,768,legacy,xpyriment,osweb,1.3.3,space,space,space,space,space,1044,23132,11518,1044,2962,2,legacy,,1573810423788,1024,2,48000,-16,experiment,45,411,TimingLong,999999999,odd,,677345,675445,674046,69,527247,671190,676297,676297,69,69,677345,538777,524267,TimingLong,0,110515,101,yes,6,1024,482
0,0,1096,1096,black,48,Default,no,2,,xpyriment,legacy,legacy,0,45,1,411,OSWeb experiment,uniform,undefined,203,101,101,0,0,101,101,101,101,0,0,0,101,0,1,0,0,,Fri Nov 15 2019 10:33:41 GMT+0100 (Central European Standard Time),876,3127,The main experiment item,yes,1265,,/Users/rijn/Downloads,no,mono,no,18,no,white,no,no,None,null,768,legacy,xpyriment,osweb,1.3.3,space,space,space,space,space,1286,23132,11518,1286,2962,2,legacy,,1573810423788,1024,2,48000,-16,experiment,45,411,TimingLong,999999999,odd,,683962,681779,680496,69,527247,677355,682663,682663,69,69,683962,538777,524267,TimingLong,0,111801,102,yes,6,1024,482
0,0,1097,1097,black,48,Default,no,2,,xpyriment,legacy,legacy,0,45,1,411,OSWeb experiment,uniform,undefined,205,102,102,0,0,102,102,102,102,0,0,0,102,0,1,0,0,,Fri Nov 15 2019 10:33:41 GMT+0100 (Central European Standard Time),838,2904,The main experiment item,yes,1165,,/Users/rijn/Downloads,no,mono,no,18,no,white,no,no,None,null,768,legacy,xpyriment,osweb,1.3.3,space,space,space,space,space,1188,23132,11518,1188,2962,2,legacy,,1573810423788,1024,2,48000,-16,experiment,45,411,TimingLong,999999999,odd,,690112,688062,686881,69,527247,683972,688912,688913,69,69,690112,538777,524267,TimingLong,0,112989,103,yes,6,1024,482
0,0,1098,1098,black,48,Default,no,2,,xpyriment,legacy,legacy,0,45,1,411,OSWeb experiment,uniform,undefined,207,103,103,0,0,103,103,103,103,0,0,0,103,0,1,0,0,,Fri Nov 15 2019 10:33:41 GMT+0100 (Central European Standard Time),858,2956,The main experiment item,yes,1675,,/Users/rijn/Downloads,no,mono,no,18,no,white,no,no,None,null,768,legacy,xpyriment,osweb,1.3.3,space,space,space,space,space,1246,23132,11518,1246,2962,2,legacy,,1573810423788,1024,2,48000,-16,experiment,45,411,TimingLong,999999999,odd,,696896,694779,693096,69,527247,690122,695646,695647,69,69,696896,538777,524267,TimingLong,0,114235,104,yes,16,1024,482
0,0,1095,1095,black,48,Default,no,2,,xpyriment,legacy,legacy,0,45,1,411,OSWeb experiment,uniform,undefined,209,104,104,0,0,104,104,104,104,0,0,0,104,0,1,0,0,,Fri Nov 15 2019 10:33:41 GMT+0100 (Central European Standard Time),806,3147,The main experiment item,yes,1535,,/Users/rijn/Downloads,no,mono,no,18,no,white,no,no,None,null,768,legacy,xpyriment,osweb,1.3.3,space,space,space,space,space,784,23132,11518,784,2962,2,legacy,,1573810423788,1024,2,48000,-16,experiment,45,411,TimingLong,999999999,odd,,703229,701613,700071,69,527247,696908,702429,702429,69,69,703229,538777,524267,TimingLong,0,115019,105,yes,6,1024,482
0,0,1092,1092,black,48,Default,no,2,,xpyriment,legacy,legacy,0,45,1,411,OSWeb experiment,uniform,undefined,211,105,105,0,0,105,105,105,105,0,0,0,105,0,1,0,0,,Fri Nov 15 2019 10:33:41 GMT+0100 (Central European Standard Time),812,3060,The main experiment item,yes,1265,,/Users/rijn/Downloads,no,mono,no,18,no,white,no,no,None,null,768,legacy,xpyriment,osweb,1.3.3,space,space,space,space,space,728,23132,11518,728,2962,2,legacy,,1573810423788,1024,2,48000,-16,experiment,45,411,TimingLong,999999999,odd,,709146,707596,706313,69,527247,703239,708413,708413,69,69,709146,538777,524267,TimingLong,0,115747,106,yes,6,1024,482
0,0,1089,1089,black,48,Default,no,2,,xpyriment,legacy,legacy,0,45,1,411,OSWeb experiment,uniform,undefined,213,106,106,0,0,106,106,106,106,0,0,0,106,0,1,0,0,,Fri Nov 15 2019 10:33:41 GMT+0100 (Central European Standard Time),750,3050,The main experiment item,yes,1395,,/Users/rijn/Downloads,no,mono,no,18,no,white,no,no,None,null,768,legacy,xpyriment,osweb,1.3.3,space,space,space,space,space,814,23132,11518,814,2962,2,legacy,,1573810423788,1024,2,48000,-16,experiment,45,411,TimingLong,999999999,odd,,715212,713612,712213,69,527247,709156,714382,714382,69,69,715212,538777,524267,TimingLong,0,116561,107,yes,6,1024,482
0,0,1091,1091,black,48,Default,no,2,,xpyriment,legacy,legacy,0,45,1,411,OSWeb experiment,uniform,undefined,215,107,107,0,0,107,107,107,107,0,0,0,107,0,1,0,0,,Fri Nov 15 2019 10:33:41 GMT+0100 (Central European Standard Time),845,3207,The main experiment item,yes,1675,,/Users/rijn/Downloads,no,mono,no,18,no,white,no,no,None,null,768,legacy,xpyriment,osweb,1.3.3,space,space,space,space,space,1234,23132,11518,1234,2962,2,legacy,,1573810423788,1024,2,48000,-16,experiment,45,411,TimingLong,999999999,odd,,722212,720113,718430,69,527247,715217,720963,720963,69,69,722212,538777,524267,TimingLong,0,117795,108,yes,16,1024,482
0,0,1089,1089,black,48,Default,no,2,,xpyriment,legacy,legacy,0,45,1,411,OSWeb experiment,uniform,undefined,217,108,108,0,0,108,108,108,108,0,0,0,108,0,1,0,0,,Fri Nov 15 2019 10:33:41 GMT+0100 (Central European Standard Time),881,2873,The main experiment item,yes,1165,,/Users/rijn/Downloads,no,mono,no,18,no,white,no,no,None,null,768,legacy,xpyriment,osweb,1.3.3,space,space,space,space,space,879,23132,11518,879,2962,2,legacy,,1573810423788,1024,2,48000,-16,experiment,45,411,TimingLong,999999999,odd,,728062,726296,725114,69,527247,722224,727181,727181,69,69,728062,538777,524267,TimingLong,0,118674,109,yes,6,1024,482
0,0,1088,1088,black,48,Default,no,2,,xpyriment,legacy,legacy,0,45,1,411,OSWeb experiment,uniform,undefined,219,109,109,0,0,109,109,109,109,0,0,0,109,0,1,0,0,,Fri Nov 15 2019 10:33:41 GMT+0100 (Central European Standard Time),721,2760,The main experiment item,yes,1675,,/Users/rijn/Downloads,no,mono,no,18,no,white,no,no,None,null,768,legacy,xpyriment,osweb,1.3.3,space,space,space,space,space,1055,23132,11518,1055,2962,2,legacy,,1573810423788,1024,2,48000,-16,experiment,45,411,TimingLong,999999999,odd,,734329,732529,730847,69,527247,728071,733262,733262,69,69,734329,538777,524267,TimingLong,0,119729,110,yes,16,1024,482
0,0,1086,1086,black,48,Default,no,2,,xpyriment,legacy,legacy,0,45,1,411,OSWeb experiment,uniform,undefined,221,110,110,0,0,110,110,110,110,0,0,0,110,0,1,0,0,,Fri Nov 15 2019 10:33:41 GMT+0100 (Central European Standard Time),769,2915,The main experiment item,yes,1165,,/Users/rijn/Downloads,no,mono,no,18,no,white,no,no,None,null,768,legacy,xpyriment,osweb,1.3.3,space,space,space,space,space,782,23132,11518,782,2962,2,legacy,,1573810423788,1024,2,48000,-16,experiment,45,411,TimingLong,999999999,odd,,740013,738430,737263,69,527247,734339,739214,739214,69,69,740013,538777,524267,TimingLong,0,120511,111,yes,6,1024,482
0,0,1092,1092,black,48,Default,no,2,,xpyriment,legacy,legacy,0,45,1,411,OSWeb experiment,uniform,undefined,223,111,111,0,0,111,111,111,111,0,0,0,111,0,1,0,0,,Fri Nov 15 2019 10:33:41 GMT+0100 (Central European Standard Time),861,3178,The main experiment item,yes,1535,,/Users/rijn/Downloads,no,mono,no,18,no,white,no,no,None,null,768,legacy,xpyriment,osweb,1.3.3,space,space,space,space,space,1740,23132,11518,1740,2962,2,legacy,,1573810423788,1024,2,48000,-16,experiment,45,411,TimingLong,999999999,odd,,747379,744763,743213,69,527247,740020,745633,745633,69,69,747379,538777,524267,TimingLong,0,122251,112,yes,6,1024,482
0,0,1088,1088,black,48,Default,no,2,,xpyriment,legacy,legacy,0,45,1,411,OSWeb experiment,uniform,undefined,225,112,112,0,0,112,112,112,112,0,0,0,112,0,1,0,0,,Fri Nov 15 2019 10:33:41 GMT+0100 (Central European Standard Time),749,3156,The main experiment item,yes,1165,,/Users/rijn/Downloads,no,mono,no,18,no,white,no,no,None,null,768,legacy,xpyriment,osweb,1.3.3,space,space,space,space,space,651,23132,11518,651,2962,2,legacy,,1573810423788,1024,2,48000,-16,experiment,45,411,TimingLong,999999999,odd,,753162,751734,750547,69,527247,747388,752498,752498,69,69,753163,538777,524267,TimingLong,0,122902,113,yes,6,1024,482
0,0,1092,1092,black,48,Default,no,2,,xpyriment,legacy,legacy,0,45,1,411,OSWeb experiment,uniform,undefined,227,113,113,0,0,113,113,113,113,0,0,0,113,0,1,0,0,,Fri Nov 15 2019 10:33:41 GMT+0100 (Central European Standard Time),822,3024,The main experiment item,yes,1675,,/Users/rijn/Downloads,no,mono,no,18,no,white,no,no,None,null,768,legacy,xpyriment,osweb,1.3.3,space,space,space,space,space,1547,23132,11518,1547,2962,2,legacy,,1573810423788,1024,2,48000,-16,experiment,45,411,TimingLong,999999999,odd,,760279,757896,756213,69,527247,753172,758730,758730,69,69,760279,538777,524267,TimingLong,0,124449,114,yes,16,1024,482
0,0,1092,1092,black,48,Default,no,2,,xpyriment,legacy,legacy,0,45,1,411,OSWeb experiment,uniform,undefined,229,114,114,0,0,114,114,114,114,0,0,0,114,0,1,0,0,,Fri Nov 15 2019 10:33:41 GMT+0100 (Central European Standard Time),843,2951,The main experiment item,yes,1265,,/Users/rijn/Downloads,no,mono,no,18,no,white,no,no,None,null,768,legacy,xpyriment,osweb,1.3.3,space,space,space,space,space,1080,23132,11518,1080,2962,2,legacy,,1573810423788,1024,2,48000,-16,experiment,45,411,TimingLong,999999999,odd,,766463,764530,763248,69,527247,760288,765380,765380,69,69,766464,538777,524267,TimingLong,0,125529,115,yes,6,1024,482
0,0,1091,1091,black,48,Default,no,2,,xpyriment,legacy,legacy,0,45,1,411,OSWeb experiment,uniform,undefined,231,115,115,0,0,115,115,115,115,0,0,0,115,0,1,0,0,,Fri Nov 15 2019 10:33:41 GMT+0100 (Central European Standard Time),788,2946,The main experiment item,yes,1265,,/Users/rijn/Downloads,no,mono,no,18,no,white,no,no,None,null,768,legacy,xpyriment,osweb,1.3.3,space,space,space,space,space,1076,23132,11518,1076,2962,2,legacy,,1573810423788,1024,2,48000,-16,experiment,45,411,TimingLong,999999999,odd,,772579,770697,769431,69,527247,766473,771497,771497,69,69,772579,538777,524267,TimingLong,0,126605,116,yes,6,1024,482
0,0,1094,1094,black,48,Default,no,2,,xpyriment,legacy,legacy,0,45,1,411,OSWeb experiment,uniform,undefined,233,116,116,0,0,116,116,116,116,0,0,0,116,0,1,0,0,,Fri Nov 15 2019 10:33:41 GMT+0100 (Central European Standard Time),725,2876,The main experiment item,yes,1675,,/Users/rijn/Downloads,no,mono,no,18,no,white,no,no,None,null,768,legacy,xpyriment,osweb,1.3.3,space,space,space,space,space,1419,23132,11518,1419,2962,2,legacy,,1573810423788,1024,2,48000,-16,experiment,45,411,TimingLong,999999999,odd,,779329,777163,775480,69,527247,772588,777897,777897,69,69,779329,538777,524267,TimingLong,0,128024,117,yes,16,1024,482
0,0,1100,1100,black,48,Default,no,2,,xpyriment,legacy,legacy,0,45,1,411,OSWeb experiment,uniform,undefined,235,117,117,0,0,117,117,117,117,0,0,0,117,0,1,0,0,,Fri Nov 15 2019 10:33:41 GMT+0100 (Central European Standard Time),861,2944,The main experiment item,yes,1675,,/Users/rijn/Downloads,no,mono,no,18,no,white,no,no,None,null,768,legacy,xpyriment,osweb,1.3.3,space,space,space,space,space,1743,23132,11518,1743,2962,2,legacy,,1573810423788,1024,2,48000,-16,experiment,45,411,TimingLong,999999999,odd,,786579,783965,782281,69,527247,779334,784830,784830,69,69,786579,538777,524267,TimingLong,0,129767,118,yes,16,1024,482
0,0,1100,1100,black,48,Default,no,2,,xpyriment,legacy,legacy,0,45,1,411,OSWeb experiment,uniform,undefined,237,118,118,0,0,118,118,118,118,0,0,0,118,0,1,0,0,,Fri Nov 15 2019 10:33:41 GMT+0100 (Central European Standard Time),821,2804,The main experiment item,yes,1535,,/Users/rijn/Downloads,no,mono,no,18,no,white,no,no,None,null,768,legacy,xpyriment,osweb,1.3.3,space,space,space,space,space,1129,23132,11518,1129,2962,2,legacy,,1573810423788,1024,2,48000,-16,experiment,45,411,TimingLong,999999999,odd,,792913,790947,789397,69,527247,786589,791780,791780,69,69,792913,538777,524267,TimingLong,0,130896,119,yes,6,1024,482
0,0,1102,1102,black,48,Default,no,2,,xpyriment,legacy,legacy,0,45,1,411,OSWeb experiment,uniform,undefined,239,119,119,0,0,119,119,119,119,0,0,0,119,0,1,0,0,,Fri Nov 15 2019 10:33:41 GMT+0100 (Central European Standard Time),744,2774,The main experiment item,yes,1165,,/Users/rijn/Downloads,no,mono,no,18,no,white,no,no,None,null,768,legacy,xpyriment,osweb,1.3.3,space,space,space,space,space,1309,23132,11518,1309,2962,2,legacy,,1573810423788,1024,2,48000,-16,experiment,45,411,TimingLong,999999999,odd,,798963,796897,795714,69,527247,792925,797648,797648,69,69,798963,538777,524267,TimingLong,0,132205,120,yes,6,1024,482
0,0,1104,1104,black,48,Default,no,2,,xpyriment,legacy,legacy,0,45,1,411,OSWeb experiment,uniform,undefined,241,120,120,0,0,120,120,120,120,0,0,0,120,0,1,0,0,,Fri Nov 15 2019 10:33:41 GMT+0100 (Central European Standard Time),770,2906,The main experiment item,yes,1675,,/Users/rijn/Downloads,no,mono,no,18,no,white,no,no,None,null,768,legacy,xpyriment,osweb,1.3.3,space,space,space,space,space,1417,23132,11518,1417,2962,2,legacy,,1573810423788,1024,2,48000,-16,experiment,45,411,TimingLong,999999999,odd,,805796,803582,801897,69,527247,798975,804363,804363,69,69,805796,538777,524267,TimingLong,0,133622,121,yes,16,1024,482
0,0,1105,1105,black,48,Default,no,2,,xpyriment,legacy,legacy,0,45,1,411,OSWeb experiment,uniform,undefined,243,121,121,0,0,121,121,121,121,0,0,0,121,0,1,0,0,,Fri Nov 15 2019 10:33:41 GMT+0100 (Central European Standard Time),809,3055,The main experiment item,yes,1675,,/Users/rijn/Downloads,no,mono,no,18,no,white,no,no,None,null,768,legacy,xpyriment,osweb,1.3.3,space,space,space,space,space,1186,23132,11518,1186,2962,2,legacy,,1573810423788,1024,2,48000,-16,experiment,45,411,TimingLong,999999999,odd,,812564,810547,808863,69,527247,805806,811363,811363,69,69,812564,538777,524267,TimingLong,0,134808,122,yes,16,1024,482
0,0,1105,1105,black,48,Default,no,2,,xpyriment,legacy,legacy,0,45,1,411,OSWeb experiment,uniform,undefined,245,122,122,0,0,122,122,122,122,0,0,0,122,0,1,0,0,,Fri Nov 15 2019 10:33:41 GMT+0100 (Central European Standard Time),831,2970,The main experiment item,yes,1265,,/Users/rijn/Downloads,no,mono,no,18,no,white,no,no,None,null,768,legacy,xpyriment,osweb,1.3.3,space,space,space,space,space,1132,23132,11518,1132,2962,2,legacy,,1573810423788,1024,2,48000,-16,experiment,45,411,TimingLong,999999999,odd,,818796,816814,815547,69,527247,812573,817648,817648,69,69,818796,538777,524267,TimingLong,0,135940,123,yes,6,1024,482
0,0,1110,1110,black,48,Default,no,2,,xpyriment,legacy,legacy,0,45,1,411,OSWeb experiment,uniform,undefined,247,123,123,0,0,123,123,123,123,0,0,0,123,0,1,0,0,,Fri Nov 15 2019 10:33:41 GMT+0100 (Central European Standard Time),880,3142,The main experiment item,yes,1535,,/Users/rijn/Downloads,no,mono,no,18,no,white,no,no,None,null,768,legacy,xpyriment,osweb,1.3.3,space,space,space,space,space,1680,23132,11518,1680,2962,2,legacy,,1573810423788,1024,2,48000,-16,experiment,45,411,TimingLong,999999999,odd,,826080,823513,821966,69,527247,818806,824397,824397,69,69,826080,538777,524267,TimingLong,0,137620,124,yes,6,1024,482
0,0,1112,1112,black,48,Default,no,2,,xpyriment,legacy,legacy,0,45,1,411,OSWeb experiment,uniform,undefined,249,124,124,0,0,124,124,124,124,0,0,0,124,0,1,0,0,,Fri Nov 15 2019 10:33:41 GMT+0100 (Central European Standard Time),867,2760,The main experiment item,yes,1675,,/Users/rijn/Downloads,no,mono,no,18,no,white,no,no,None,null,768,legacy,xpyriment,osweb,1.3.3,space,space,space,space,space,1413,23132,11518,1413,2962,2,legacy,,1573810423788,1024,2,48000,-16,experiment,45,411,TimingLong,999999999,odd,,832846,830547,828865,69,527247,826090,831431,831431,69,69,832846,538777,524267,TimingLong,0,139033,125,yes,16,1024,482
0,0,1113,1113,black,48,Default,no,2,,xpyriment,legacy,legacy,0,45,1,411,OSWeb experiment,uniform,undefined,251,125,125,0,0,125,125,125,125,0,0,0,125,0,1,0,0,,Fri Nov 15 2019 10:33:41 GMT+0100 (Central European Standard Time),781,2993,The main experiment item,yes,1535,,/Users/rijn/Downloads,no,mono,no,18,no,white,no,no,None,null,768,legacy,xpyriment,osweb,1.3.3,space,space,space,space,space,1231,23132,11518,1231,2962,2,legacy,,1573810423788,1024,2,48000,-16,experiment,45,411,TimingLong,999999999,odd,,839429,837414,835864,69,527247,832859,838197,838197,69,69,839429,538777,524267,TimingLong,0,140264,126,yes,6,1024,482
0,0,1113,1113,black,48,Default,no,2,,xpyriment,legacy,legacy,0,45,1,411,OSWeb experiment,uniform,undefined,253,126,126,0,0,126,126,126,126,0,0,0,126,0,1,0,0,,Fri Nov 15 2019 10:33:41 GMT+0100 (Central European Standard Time),786,3124,The main experiment item,yes,1535,,/Users/rijn/Downloads,no,mono,no,18,no,white,no,no,None,null,768,legacy,xpyriment,osweb,1.3.3,space,space,space,space,space,1027,23132,11518,1027,2962,2,legacy,,1573810423788,1024,2,48000,-16,experiment,45,411,TimingLong,999999999,odd,,845947,844113,842564,69,527247,839438,844914,844914,69,69,845947,538777,524267,TimingLong,0,141291,127,yes,6,1024,482
0,0,1119,1119,black,48,Default,no,2,,xpyriment,legacy,legacy,0,45,1,411,OSWeb experiment,uniform,undefined,255,127,127,0,0,127,127,127,127,0,0,0,127,0,1,0,0,,Fri Nov 15 2019 10:33:41 GMT+0100 (Central European Standard Time),822,3162,The main experiment item,yes,1165,,/Users/rijn/Downloads,no,mono,no,18,no,white,no,no,None,null,768,legacy,xpyriment,osweb,1.3.3,space,space,space,space,space,1955,23132,11518,1955,2962,2,legacy,,1573810423788,1024,2,48000,-16,experiment,45,411,TimingLong,999999999,odd,,853097,850296,849129,69,527247,845957,851130,851130,69,69,853097,538777,524267,TimingLong,0,143246,128,yes,6,1024,482
0,0,1123,1123,black,48,Default,no,2,,xpyriment,legacy,legacy,0,45,1,411,OSWeb experiment,uniform,undefined,257,128,128,0,0,128,128,128,128,0,0,0,128,0,1,0,0,,Fri Nov 15 2019 10:33:41 GMT+0100 (Central European Standard Time),712,2933,The main experiment item,yes,1395,,/Users/rijn/Downloads,no,mono,no,18,no,white,no,no,None,null,768,legacy,xpyriment,osweb,1.3.3,space,space,space,space,space,1609,23132,11518,1609,2962,2,legacy,,1573810423788,1024,2,48000,-16,experiment,45,411,TimingLong,999999999,odd,,859780,857447,856048,69,527247,853109,858164,858164,69,69,859780,538777,524267,TimingLong,0,144855,129,yes,6,1024,482
0,0,1126,1126,black,48,Default,no,2,,xpyriment,legacy,legacy,0,45,1,411,OSWeb experiment,uniform,undefined,259,129,129,0,0,129,129,129,129,0,0,0,129,0,1,0,0,,Fri Nov 15 2019 10:33:41 GMT+0100 (Central European Standard Time),707,3105,The main experiment item,yes,1675,,/Users/rijn/Downloads,no,mono,no,18,no,white,no,no,None,null,768,legacy,xpyriment,osweb,1.3.3,space,space,space,space,space,1523,23132,11518,1523,2962,2,legacy,,1573810423788,1024,2,48000,-16,experiment,45,411,TimingLong,999999999,odd,,866830,864580,862898,69,527247,859790,865297,865297,69,69,866830,538777,524267,TimingLong,0,146378,130,yes,16,1024,482
0,0,1129,1129,black,48,Default,no,2,,xpyriment,legacy,legacy,0,45,1,411,OSWeb experiment,uniform,undefined,261,130,130,0,0,130,130,130,130,0,0,0,130,0,1,0,0,,Fri Nov 15 2019 10:33:41 GMT+0100 (Central European Standard Time),806,3039,The main experiment item,yes,1675,,/Users/rijn/Downloads,no,mono,no,18,no,white,no,no,None,null,768,legacy,xpyriment,osweb,1.3.3,space,space,space,space,space,1495,23132,11518,1495,2962,2,legacy,,1573810423788,1024,2,48000,-16,experiment,45,411,TimingLong,999999999,odd,,873881,871563,869880,69,527247,866839,872381,872381,69,69,873881,538777,524267,TimingLong,0,147873,131,yes,16,1024,482
0,0,1131,1131,black,48,Default,no,2,,xpyriment,legacy,legacy,0,45,1,411,OSWeb experiment,uniform,undefined,263,131,131,0,0,131,131,131,131,0,0,0,131,0,1,0,0,,Fri Nov 15 2019 10:33:41 GMT+0100 (Central European Standard Time),777,2783,The main experiment item,yes,1265,,/Users/rijn/Downloads,no,mono,no,18,no,white,no,no,None,null,768,legacy,xpyriment,osweb,1.3.3,space,space,space,space,space,1361,23132,11518,1361,2962,2,legacy,,1573810423788,1024,2,48000,-16,experiment,45,411,TimingLong,999999999,odd,,880114,877964,876681,69,527247,873890,878747,878747,69,69,880114,538777,524267,TimingLong,0,149234,132,yes,6,1024,482
0,0,1129,1129,black,48,Default,no,2,,xpyriment,legacy,legacy,0,45,1,411,OSWeb experiment,uniform,undefined,265,132,132,0,0,132,132,132,132,0,0,0,132,0,1,0,0,,Fri Nov 15 2019 10:33:41 GMT+0100 (Central European Standard Time),716,3094,The main experiment item,yes,1395,,/Users/rijn/Downloads,no,mono,no,18,no,white,no,no,None,null,768,legacy,xpyriment,osweb,1.3.3,space,space,space,space,space,880,23132,11518,880,2962,2,legacy,,1573810423788,1024,2,48000,-16,experiment,45,411,TimingLong,999999999,odd,,886229,884613,883213,69,527247,880117,885348,885348,69,69,886229,538777,524267,TimingLong,0,150114,133,yes,6,1024,482
0,0,1127,1127,black,48,Default,no,2,,xpyriment,legacy,legacy,0,45,1,411,OSWeb experiment,uniform,undefined,267,133,133,0,0,133,133,133,133,0,0,0,133,0,1,0,0,,Fri Nov 15 2019 10:33:41 GMT+0100 (Central European Standard Time),899,2893,The main experiment item,yes,1395,,/Users/rijn/Downloads,no,mono,no,18,no,white,no,no,None,null,768,legacy,xpyriment,osweb,1.3.3,space,space,space,space,space,949,23132,11518,949,2962,2,legacy,,1573810423788,1024,2,48000,-16,experiment,45,411,TimingLong,999999999,odd,,892399,890531,889132,69,527247,886234,891448,891448,69,69,892399,538777,524267,TimingLong,0,151063,134,yes,6,1024,482
0,0,1128,1128,black,48,Default,no,2,,xpyriment,legacy,legacy,0,45,1,411,OSWeb experiment,uniform,undefined,269,134,134,0,0,134,134,134,134,0,0,0,134,0,1,0,0,,Fri Nov 15 2019 10:33:41 GMT+0100 (Central European Standard Time),847,3210,The main experiment item,yes,1675,,/Users/rijn/Downloads,no,mono,no,18,no,white,no,no,None,null,768,legacy,xpyriment,osweb,1.3.3,space,space,space,space,space,1280,23132,11518,1280,2962,2,legacy,,1573810423788,1024,2,48000,-16,experiment,45,411,TimingLong,999999999,odd,,899447,897314,895632,69,527247,892410,898164,898164,69,69,899447,538777,524267,TimingLong,0,152343,135,yes,16,1024,482
0,0,1128,1128,black,48,Default,no,2,,xpyriment,legacy,legacy,0,45,1,411,OSWeb experiment,uniform,undefined,271,135,135,0,0,135,135,135,135,0,0,0,135,0,1,0,0,,Fri Nov 15 2019 10:33:41 GMT+0100 (Central European Standard Time),842,3180,The main experiment item,yes,1675,,/Users/rijn/Downloads,no,mono,no,18,no,white,no,no,None,null,768,legacy,xpyriment,osweb,1.3.3,space,space,space,space,space,1029,23132,11518,1029,2962,2,legacy,,1573810423788,1024,2,48000,-16,experiment,45,411,TimingLong,999999999,odd,,906213,904331,902647,69,527247,899457,905183,905183,69,69,906213,538777,524267,TimingLong,0,153372,136,yes,16,1024,482
0,0,1128,1128,black,48,Default,no,2,,xpyriment,legacy,legacy,0,45,1,411,OSWeb experiment,uniform,undefined,273,136,136,0,0,136,136,136,136,0,0,0,136,0,1,0,0,,Fri Nov 15 2019 10:33:41 GMT+0100 (Central European Standard Time),707,2931,The main experiment item,yes,1395,,/Users/rijn/Downloads,no,mono,no,18,no,white,no,no,None,null,768,legacy,xpyriment,osweb,1.3.3,space,space,space,space,space,1132,23132,11518,1132,2962,2,legacy,,1573810423788,1024,2,48000,-16,experiment,45,411,TimingLong,999999999,odd,,912414,910564,909164,69,527247,906217,911281,911281,69,69,912414,538777,524267,TimingLong,0,154504,137,yes,6,1024,482
0,0,1128,1128,black,48,Default,no,2,,xpyriment,legacy,legacy,0,45,1,411,OSWeb experiment,uniform,undefined,275,137,137,0,0,137,137,137,137,0,0,0,137,0,1,0,0,,Fri Nov 15 2019 10:33:41 GMT+0100 (Central European Standard Time),791,2822,The main experiment item,yes,1675,,/Users/rijn/Downloads,no,mono,no,18,no,white,no,no,None,null,768,legacy,xpyriment,osweb,1.3.3,space,space,space,space,space,1194,23132,11518,1194,2962,2,legacy,,1573810423788,1024,2,48000,-16,experiment,45,411,TimingLong,999999999,odd,,918930,916931,915248,69,527247,912424,917731,917731,69,69,918930,538777,524267,TimingLong,0,155698,138,yes,16,1024,482
0,0,1129,1129,black,48,Default,no,2,,xpyriment,legacy,legacy,0,45,1,411,OSWeb experiment,uniform,undefined,277,138,138,0,0,138,138,138,138,0,0,0,138,0,1,0,0,,Fri Nov 15 2019 10:33:41 GMT+0100 (Central European Standard Time),866,2928,The main experiment item,yes,1675,,/Users/rijn/Downloads,no,mono,no,18,no,white,no,no,None,null,768,legacy,xpyriment,osweb,1.3.3,space,space,space,space,space,1213,23132,11518,1213,2962,2,legacy,,1573810423788,1024,2,48000,-16,experiment,45,411,TimingLong,999999999,odd,,925664,923564,921881,69,527247,918940,924448,924448,69,69,925664,538777,524267,TimingLong,0,156911,139,yes,16,1024,482
0,0,1127,1127,black,48,Default,no,2,,xpyriment,legacy,legacy,0,45,1,411,OSWeb experiment,uniform,undefined,279,139,139,0,0,139,139,139,139,0,0,0,139,0,1,0,0,,Fri Nov 15 2019 10:33:41 GMT+0100 (Central European Standard Time),773,3146,The main experiment item,yes,1165,,/Users/rijn/Downloads,no,mono,no,18,no,white,no,no,None,null,768,legacy,xpyriment,osweb,1.3.3,space,space,space,space,space,806,23132,11518,806,2962,2,legacy,,1573810423788,1024,2,48000,-16,experiment,45,411,TimingLong,999999999,odd,,931614,930015,928832,69,527247,925673,930798,930798,69,69,931614,538777,524267,TimingLong,0,157717,140,yes,6,1024,482
0,0,1126,1126,black,48,Default,no,2,,xpyriment,legacy,legacy,0,45,1,411,OSWeb experiment,uniform,undefined,281,140,140,0,0,140,140,140,140,0,0,0,140,0,1,0,0,,Fri Nov 15 2019 10:33:41 GMT+0100 (Central European Standard Time),864,2982,The main experiment item,yes,1675,,/Users/rijn/Downloads,no,mono,no,18,no,white,no,no,None,null,768,legacy,xpyriment,osweb,1.3.3,space,space,space,space,space,1063,23132,11518,1063,2962,2,legacy,,1573810423788,1024,2,48000,-16,experiment,45,411,TimingLong,999999999,odd,,938231,936297,934615,69,527247,931626,937164,937165,69,69,938231,538777,524267,TimingLong,0,158780,141,yes,16,1024,482
0,0,1126,1126,black,48,Default,no,2,,xpyriment,legacy,legacy,0,45,1,411,OSWeb experiment,uniform,undefined,283,141,141,0,0,141,141,141,141,0,0,0,141,0,1,0,0,,Fri Nov 15 2019 10:33:41 GMT+0100 (Central European Standard Time),855,3246,The main experiment item,yes,1265,,/Users/rijn/Downloads,no,mono,no,18,no,white,no,no,None,null,768,legacy,xpyriment,osweb,1.3.3,space,space,space,space,space,1106,23132,11518,1106,2962,2,legacy,,1573810423788,1024,2,48000,-16,experiment,45,411,TimingLong,999999999,odd,,944764,942781,941499,69,527247,938240,943650,943650,69,69,944764,538777,524267,TimingLong,0,159886,142,yes,6,1024,482
0,0,1125,1125,black,48,Default,no,2,,xpyriment,legacy,legacy,0,45,1,411,OSWeb experiment,uniform,undefined,285,142,142,0,0,142,142,142,142,0,0,0,142,0,1,0,0,,Fri Nov 15 2019 10:33:41 GMT+0100 (Central European Standard Time),722,3160,The main experiment item,yes,1675,,/Users/rijn/Downloads,no,mono,no,18,no,white,no,no,None,null,768,legacy,xpyriment,osweb,1.3.3,space,space,space,space,space,927,23132,11518,927,2962,2,legacy,,1573810423788,1024,2,48000,-16,experiment,45,411,TimingLong,999999999,odd,,951297,949630,947953,69,527247,944774,950365,950365,69,69,951297,538777,524267,TimingLong,0,160813,143,yes,16,1024,482
0,0,1124,1124,black,48,Default,no,2,,xpyriment,legacy,legacy,0,45,1,411,OSWeb experiment,uniform,undefined,287,143,143,0,0,143,143,143,143,0,0,0,143,0,1,0,0,,Fri Nov 15 2019 10:33:41 GMT+0100 (Central European Standard Time),765,3206,The main experiment item,yes,1165,,/Users/rijn/Downloads,no,mono,no,18,no,white,no,no,None,null,768,legacy,xpyriment,osweb,1.3.3,space,space,space,space,space,1083,23132,11518,1083,2962,2,legacy,,1573810423788,1024,2,48000,-16,experiment,45,411,TimingLong,999999999,odd,,957581,955699,954531,69,527247,951307,956481,956481,69,69,957581,538777,524267,TimingLong,0,161896,144,yes,6,1024,482
0,0,1122,1122,black,48,Default,no,2,,xpyriment,legacy,legacy,0,45,1,411,OSWeb experiment,uniform,undefined,289,144,144,0,0,144,144,144,144,0,0,0,144,0,1,0,0,,Fri Nov 15 2019 10:33:41 GMT+0100 (Central European Standard Time),835,2795,The main experiment item,yes,1265,,/Users/rijn/Downloads,no,mono,no,18,no,white,no,no,None,null,768,legacy,xpyriment,osweb,1.3.3,space,space,space,space,space,808,23132,11518,808,2962,2,legacy,,1573810423788,1024,2,48000,-16,experiment,45,411,TimingLong,999999999,odd,,963347,961683,960398,69,527247,957590,962532,962532,69,69,963347,538777,524267,TimingLong,0,162704,145,yes,6,1024,482
0,0,1122,1122,black,48,Default,no,2,,xpyriment,legacy,legacy,0,45,1,411,OSWeb experiment,uniform,undefined,291,145,145,0,0,145,145,145,145,0,0,0,145,0,1,0,0,,Fri Nov 15 2019 10:33:41 GMT+0100 (Central European Standard Time),827,2809,The main experiment item,yes,1675,,/Users/rijn/Downloads,no,mono,no,18,no,white,no,no,None,null,768,legacy,xpyriment,osweb,1.3.3,space,space,space,space,space,1105,23132,11518,1105,2962,2,legacy,,1573810423788,1024,2,48000,-16,experiment,45,411,TimingLong,999999999,odd,,969822,967864,966182,69,527247,963356,968699,968699,69,69,969822,538777,524267,TimingLong,0,163809,146,yes,16,1024,482
0,0,1122,1122,black,48,Default,no,2,,xpyriment,legacy,legacy,0,45,1,411,OSWeb experiment,uniform,undefined,293,146,146,0,0,146,146,146,146,0,0,0,146,0,1,0,0,,Fri Nov 15 2019 10:33:41 GMT+0100 (Central European Standard Time),714,3110,The main experiment item,yes,1675,,/Users/rijn/Downloads,no,mono,no,18,no,white,no,no,None,null,768,legacy,xpyriment,osweb,1.3.3,space,space,space,space,space,1079,23132,11518,1079,2962,2,legacy,,1573810423788,1024,2,48000,-16,experiment,45,411,TimingLong,999999999,odd,,976430,974631,972948,69,527247,969832,975348,975348,69,69,976430,538777,524267,TimingLong,0,164888,147,yes,16,1024,482
0,0,1122,1122,black,48,Default,no,2,,xpyriment,legacy,legacy,0,45,1,411,OSWeb experiment,uniform,undefined,295,147,147,0,0,147,147,147,147,0,0,0,147,0,1,0,0,,Fri Nov 15 2019 10:33:41 GMT+0100 (Central European Standard Time),792,3057,The main experiment item,yes,1265,,/Users/rijn/Downloads,no,mono,no,18,no,white,no,no,None,null,768,legacy,xpyriment,osweb,1.3.3,space,space,space,space,space,1199,23132,11518,1199,2962,2,legacy,,1573810423788,1024,2,48000,-16,experiment,45,411,TimingLong,999999999,odd,,982781,980781,979499,69,527247,976434,981581,981581,69,69,982781,538777,524267,TimingLong,0,166087,148,yes,6,1024,482
0,0,1121,1121,black,48,Default,no,2,,xpyriment,legacy,legacy,0,45,1,411,OSWeb experiment,uniform,undefined,297,148,148,0,0,148,148,148,148,0,0,0,148,0,1,0,0,,Fri Nov 15 2019 10:33:41 GMT+0100 (Central European Standard Time),752,2997,The main experiment item,yes,1535,,/Users/rijn/Downloads,no,mono,no,18,no,white,no,no,None,null,768,legacy,xpyriment,osweb,1.3.3,space,space,space,space,space,961,23132,11518,961,2962,2,legacy,,1573810423788,1024,2,48000,-16,experiment,45,411,TimingLong,999999999,odd,,989082,987348,985799,69,527247,982793,988115,988115,69,69,989082,538777,524267,TimingLong,0,167048,149,yes,6,1024,482
0,0,1123,1123,black,48,Default,no,2,,xpyriment,legacy,legacy,0,45,1,411,OSWeb experiment,uniform,undefined,299,149,149,0,0,149,149,149,149,0,0,0,149,0,1,0,0,,Fri Nov 15 2019 10:33:41 GMT+0100 (Central European Standard Time),700,2833,The main experiment item,yes,1675,,/Users/rijn/Downloads,no,mono,no,18,no,white,no,no,None,null,768,legacy,xpyriment,osweb,1.3.3,space,space,space,space,space,1455,23132,11518,1455,2962,2,legacy,,1573810423788,1024,2,48000,-16,experiment,45,411,TimingLong,999999999,odd,,995798,993615,991933,69,527247,989091,994333,994333,69,69,995798,538777,524267,TimingLong,0,168503,150,yes,16,1024,482
0,0,1126,1126,black,48,Default,no,2,,xpyriment,legacy,legacy,0,45,1,411,OSWeb experiment,uniform,undefined,301,150,150,0,0,150,150,150,150,0,0,0,150,0,1,0,0,,Fri Nov 15 2019 10:33:41 GMT+0100 (Central European Standard Time),764,3051,The main experiment item,yes,1395,,/Users/rijn/Downloads,no,mono,no,18,no,white,no,no,None,null,768,legacy,xpyriment,osweb,1.3.3,space,space,space,space,space,1587,23132,11518,1587,2962,2,legacy,,1573810423788,1024,2,48000,-16,experiment,45,411,TimingLong,999999999,odd,,1002648,1000269,998866,69,527247,995808,1001049,1001049,69,69,1002648,538777,524267,TimingLong,0,170090,151,yes,6,1024,482
0,0,1133,1133,black,48,Default,no,2,,xpyriment,legacy,legacy,0,45,1,411,OSWeb experiment,uniform,undefined,303,151,151,0,0,151,151,151,151,0,0,0,151,0,1,0,0,,Fri Nov 15 2019 10:33:41 GMT+0100 (Central European Standard Time),873,3209,The main experiment item,yes,1675,,/Users/rijn/Downloads,no,mono,no,18,no,white,no,no,None,null,768,legacy,xpyriment,osweb,1.3.3,space,space,space,space,space,2171,23132,11518,2171,2962,2,legacy,,1573810423788,1024,2,48000,-16,experiment,45,411,TimingLong,999999999,odd,,1010631,1007564,1005882,69,527247,1002659,1008449,1008449,69,69,1010631,538777,524267,TimingLong,0,172261,152,yes,16,1024,482
0,0,1139,1139,black,48,Default,no,2,,xpyriment,legacy,legacy,0,45,1,411,OSWeb experiment,uniform,undefined,305,152,152,0,0,152,152,152,152,0,0,0,152,0,1,0,0,,Fri Nov 15 2019 10:33:41 GMT+0100 (Central European Standard Time),837,2751,The main experiment item,yes,1535,,/Users/rijn/Downloads,no,mono,no,18,no,white,no,no,None,null,768,legacy,xpyriment,osweb,1.3.3,space,space,space,space,space,2061,23132,11518,2061,2962,2,legacy,,1573810423788,1024,2,48000,-16,experiment,45,411,TimingLong,999999999,odd,,1017864,1014948,1013399,69,527247,1010640,1015799,1015799,69,69,1017865,538777,524267,TimingLong,0,174322,153,yes,6,1024,482
0,0,1142,1142,black,48,Default,no,2,,xpyriment,legacy,legacy,0,45,1,411,OSWeb experiment,uniform,undefined,307,153,153,0,0,153,153,153,153,0,0,0,153,0,1,0,0,,Fri Nov 15 2019 10:33:41 GMT+0100 (Central European Standard Time),828,3159,The main experiment item,yes,1675,,/Users/rijn/Downloads,no,mono,no,18,no,white,no,no,None,null,768,legacy,xpyriment,osweb,1.3.3,space,space,space,space,space,1559,23132,11518,1559,2962,2,legacy,,1573810423788,1024,2,48000,-16,experiment,45,411,TimingLong,999999999,odd,,1025132,1022731,1021048,69,527247,1017876,1023565,1023565,69,69,1025132,538777,524267,TimingLong,0,175881,154,yes,16,1024,482
0,0,1144,1144,black,48,Default,no,2,,xpyriment,legacy,legacy,0,45,1,411,OSWeb experiment,uniform,undefined,309,154,154,0,0,154,154,154,154,0,0,0,154,0,1,0,0,,Fri Nov 15 2019 10:33:41 GMT+0100 (Central European Standard Time),878,2923,The main experiment item,yes,1675,,/Users/rijn/Downloads,no,mono,no,18,no,white,no,no,None,null,768,legacy,xpyriment,osweb,1.3.3,space,space,space,space,space,1394,23132,11518,1394,2962,2,legacy,,1573810423788,1024,2,48000,-16,experiment,45,411,TimingLong,999999999,odd,,1032048,1029765,1028085,69,527247,1025149,1030650,1030650,69,69,1032048,538777,524267,TimingLong,0,177275,155,yes,16,1024,482
0,0,1143,1143,black,48,Default,no,2,,xpyriment,legacy,legacy,0,45,1,411,OSWeb experiment,uniform,undefined,311,155,155,0,0,155,155,155,155,0,0,0,155,0,1,0,0,,Fri Nov 15 2019 10:33:41 GMT+0100 (Central European Standard Time),850,3177,The main experiment item,yes,1265,,/Users/rijn/Downloads,no,mono,no,18,no,white,no,no,None,null,768,legacy,xpyriment,osweb,1.3.3,space,space,space,space,space,1070,23132,11518,1070,2962,2,legacy,,1573810423788,1024,2,48000,-16,experiment,45,411,TimingLong,999999999,odd,,1038482,1036532,1035249,69,527247,1032058,1037398,1037398,69,69,1038482,538777,524267,TimingLong,0,178345,156,yes,6,1024,482
0,0,1144,1144,black,48,Default,no,2,,xpyriment,legacy,legacy,0,45,1,411,OSWeb experiment,uniform,undefined,313,156,156,0,0,156,156,156,156,0,0,0,156,0,1,0,0,,Fri Nov 15 2019 10:33:41 GMT+0100 (Central European Standard Time),863,3022,The main experiment item,yes,1535,,/Users/rijn/Downloads,no,mono,no,18,no,white,no,no,None,null,768,legacy,xpyriment,osweb,1.3.3,space,space,space,space,space,1224,23132,11518,1224,2962,2,legacy,,1573810423788,1024,2,48000,-16,experiment,45,411,TimingLong,999999999,odd,,1045164,1043065,1041515,69,527247,1038491,1043932,1043932,69,69,1045164,538777,524267,TimingLong,0,179569,157,yes,6,1024,482
0,0,1144,1144,black,48,Default,no,2,,xpyriment,legacy,legacy,0,45,1,411,OSWeb experiment,uniform,undefined,315,157,157,0,0,157,157,157,157,0,0,0,157,0,1,0,0,,Fri Nov 15 2019 10:33:41 GMT+0100 (Central European Standard Time),719,2866,The main experiment item,yes,1165,,/Users/rijn/Downloads,no,mono,no,18,no,white,no,no,None,null,768,legacy,xpyriment,osweb,1.3.3,space,space,space,space,space,1207,23132,11518,1207,2962,2,legacy,,1573810423788,1024,2,48000,-16,experiment,45,411,TimingLong,999999999,odd,,1051181,1049231,1048049,69,527247,1045176,1049965,1049965,69,69,1051181,538777,524267,TimingLong,0,180776,158,yes,6,1024,482
0,0,1145,1145,black,48,Default,no,2,,xpyriment,legacy,legacy,0,45,1,411,OSWeb experiment,uniform,undefined,317,158,158,0,0,158,158,158,158,0,0,0,158,0,1,0,0,,Fri Nov 15 2019 10:33:41 GMT+0100 (Central European Standard Time),707,3109,The main experiment item,yes,1535,,/Users/rijn/Downloads,no,mono,no,18,no,white,no,no,None,null,768,legacy,xpyriment,osweb,1.3.3,space,space,space,space,space,1315,23132,11518,1315,2962,2,legacy,,1573810423788,1024,2,48000,-16,experiment,45,411,TimingLong,999999999,odd,,1057915,1055865,1054316,69,527247,1051190,1056585,1056585,69,69,1057915,538777,524267,TimingLong,0,182091,159,yes,6,1024,482
0,0,1145,1145,black,48,Default,no,2,,xpyriment,legacy,legacy,0,45,1,411,OSWeb experiment,uniform,undefined,319,159,159,0,0,159,159,159,159,0,0,0,159,0,1,0,0,,Fri Nov 15 2019 10:33:41 GMT+0100 (Central European Standard Time),891,3066,The main experiment item,yes,1675,,/Users/rijn/Downloads,no,mono,no,18,no,white,no,no,None,null,768,legacy,xpyriment,osweb,1.3.3,space,space,space,space,space,1102,23132,11518,1102,2962,2,legacy,,1573810423788,1024,2,48000,-16,experiment,45,411,TimingLong,999999999,odd,,1064698,1062681,1060999,69,527247,1057926,1063582,1063582,69,69,1064698,538777,524267,TimingLong,0,183193,160,yes,16,1024,482
,,,,,,,,,"{u'codename': u'Mozilla', u'version': u'5.0 (Windows NT 10.0; Win64; x64) AppleWebKit/537.36 (KHTML, like Gecko) Chrome/78.0.3904.97 Safari/537.36', u'name': u'Netscape'}",,,,,,,,,,,,,,,,,,,,,,,,,,,,"{u'startdate': u'15-10-19', u'startdateUTC': u'15-10-19', u'starttime': u'10:33:41'}",,,,,,,"{u'debug': 0, u'taskname': 0, u'taskversion': 0, u'parameters': 0, u'pilot': 0}",,,,,,,,,,,,,,,,,,,,,,,,,,,,,"{u'pixelDepth': 24, u'width': 1920, u'height': 1080, u'availableWidth': 1920, u'availableHeight': 1040, u'colorDepth': 24, u'screenX': 0, u'screenY': 0}",,,,,,,,,,,,{u'os': u'Win32'},,,,,,,,,,,,,,,,,,,,,
0,0,1273,1273,black,48,Default,no,1,,xpyriment,legacy,legacy,0,45,1,407,OSWeb experiment,uniform,undefined,1,0,0,0,0,0,0,0,0,0,0,0,0,0,1,0,0,,Fri Nov 15 2019 09:57:47 GMT+0100 (Central European Standard Time),794,2872,The main experiment item,yes,1395,,/Users/rijn/Downloads,no,mono,no,18,no,white,no,no,None,null,768,legacy,xpyriment,osweb,1.3.3,space,space,,space,,1273,34816,,1273,,2,legacy,,1573808336146,1024,2,48000,-16,experiment,45,407,TimingLong,999999999,odd,,41247,39163,37766,57,,34883,39964,39964,57,57,41247,34879,,TimingLong,0,1273,1,yes,8,1024,478
0,0,1132,1132,black,48,Default,no,1,,xpyriment,legacy,legacy,0,45,1,407,OSWeb experiment,uniform,undefined,3,1,1,0,0,1,1,1,1,0,0,0,1,0,1,0,0,,Fri Nov 15 2019 09:57:47 GMT+0100 (Central European Standard Time),878,3212,The main experiment item,yes,1265,,/Users/rijn/Downloads,no,mono,no,18,no,white,no,no,None,null,768,legacy,xpyriment,osweb,1.3.3,space,space,,space,,990,34816,,990,,2,legacy,,1573808336146,1024,2,48000,-16,experiment,45,407,TimingLong,999999999,odd,,47648,45764,44482,57,,41252,46648,46648,57,57,47648,34879,,TimingLong,0,2263,2,yes,8,1024,478
0,0,1131,1131,black,48,Default,no,1,,xpyriment,legacy,legacy,0,45,1,407,OSWeb experiment,uniform,undefined,5,2,2,0,0,2,2,2,2,0,0,0,2,0,1,0,0,,Fri Nov 15 2019 09:57:47 GMT+0100 (Central European Standard Time),739,2864,The main experiment item,yes,1265,,/Users/rijn/Downloads,no,mono,no,18,no,white,no,no,None,null,768,legacy,xpyriment,osweb,1.3.3,space,space,,space,,1129,34816,,1129,,2,legacy,,1573808336146,1024,2,48000,-16,experiment,45,407,TimingLong,999999999,odd,,53697,51820,50534,57,,47660,52565,52565,57,57,53697,34879,,TimingLong,0,3392,3,yes,8,1024,478
