acc,accuracy,average_response_time,avg_rt,background,batchId,batchTitle,bidi,block,browser,canvas_backend,clock_backend,color_backend,compensation,componentId,componentPos,componentResultId,componentTitle,coordinates,correct,count_Clearscreen,count_Duration,count_GreenDot,count_Instructions,count_Instructions2,count_IsI,count_RedDot,count_TimeEnd,count_Trial,count_experiment,count_loopBlock2,count_mainloop,count_new_logger,count_new_sketchpad,count_new_sketchpad_1,count_osweb,count_pauze,date,datetime,delay_Duration,delay_IsI,description,disable_garbage_collection,duration,experiment,experiment_path,font_bold,font_family,font_italic,font_size,font_underline,foreground,form_clicks,fullscreen,groupMemberId,groupResultId,height,keyboard_backend,mouse_backend,opensesame_codename,opensesame_version,response,response_Instructions,response_Instructions2,response_TimeEnd,response_pauze,response_time,response_time_Instructions,response_time_Instructions2,response_time_TimeEnd,response_time_pauze,round_decimals,sampler_backend,screen,sessionid,sound_buf_size,sound_channels,sound_freq,sound_sample_size,start,studyId,studyResultId,studyTitle,subject_nr,subject_parity,system,time_Clearscreen,time_Duration,time_GreenDot,time_Instructions,time_Instructions2,time_IsI,time_RedDot,time_TimeEnd,time_loopBlock2,time_mainloop,time_new_logger,time_new_sketchpad_1,time_pauze,title,total_correct,total_response_time,total_responses,uniform_coordinates,w,width,workerId
0,0,724,724,black,47,Default,no,1,,xpyriment,legacy,legacy,0,44,1,350,OSWeb experiment,uniform,undefined,1,0,0,0,0,0,0,0,0,0,0,0,0,0,1,0,0,,Fri Nov 15 2019 09:01:13 GMT+0100 (Central European Standard Time),757,2844,The main experiment item,yes,1165,,/Users/rijn/Downloads,no,mono,no,18,no,white,no,no,None,null,768,legacy,xpyriment,osweb,1.3.3,space,space,,space,,724,28888,,724,,2,legacy,,1573804945264,1024,2,48000,-16,experiment,44,350,TimingShort,0,even,,34494,32995,31814,58,,28952,33762,33762,58,58,34495,28948,,TimingShort,0,724,1,yes,8,1024,421
0,0,1119,1119,black,47,Default,no,1,,xpyriment,legacy,legacy,0,44,1,350,OSWeb experiment,uniform,undefined,3,1,1,0,0,1,1,1,1,0,0,0,1,0,1,0,0,,Fri Nov 15 2019 09:01:13 GMT+0100 (Central European Standard Time),891,3114,The main experiment item,yes,1675,,/Users/rijn/Downloads,no,mono,no,18,no,white,no,no,None,null,768,legacy,xpyriment,osweb,1.3.3,space,space,,space,,1514,28888,,1514,,2,legacy,,1573804945264,1024,2,48000,-16,experiment,44,350,TimingShort,0,even,,41728,39312,37629,58,,34500,40212,40212,58,58,41728,28948,,TimingShort,0,2238,2,yes,8,1024,421
0,0,1250,1250,black,47,Default,no,1,,xpyriment,legacy,legacy,0,44,1,350,OSWeb experiment,uniform,undefined,5,2,2,0,0,2,2,2,2,0,0,0,2,0,1,0,0,,Fri Nov 15 2019 09:01:13 GMT+0100 (Central European Standard Time),839,3003,The main experiment item,yes,1265,,/Users/rijn/Downloads,no,mono,no,18,no,white,no,no,None,null,768,legacy,xpyriment,osweb,1.3.3,space,space,,space,,1512,28888,,1512,,2,legacy,,1573804945264,1024,2,48000,-16,experiment,44,350,TimingShort,0,even,,48394,46030,44746,58,,41732,46878,46878,58,58,48394,28948,,TimingShort,0,3750,3,yes,8,1024,421
0,0,1196,1196,black,47,Default,no,1,,xpyriment,legacy,legacy,0,44,1,350,OSWeb experiment,uniform,undefined,7,3,3,0,0,3,3,3,3,0,0,0,3,0,1,0,0,,Fri Nov 15 2019 09:01:13 GMT+0100 (Central European Standard Time),789,3064,The main experiment item,yes,1535,,/Users/rijn/Downloads,no,mono,no,18,no,white,no,no,None,null,768,legacy,xpyriment,osweb,1.3.3,space,space,,space,,1033,28888,,1033,,2,legacy,,1573804945264,1024,2,48000,-16,experiment,44,350,TimingShort,0,even,,54878,53028,51479,58,,48399,53829,53829,58,58,54878,28948,,TimingShort,0,4783,4,yes,8,1024,421
0,0,1231,1231,black,47,Default,no,1,,xpyriment,legacy,legacy,0,44,1,350,OSWeb experiment,uniform,undefined,9,4,4,0,0,4,4,4,4,0,0,0,4,0,1,0,0,,Fri Nov 15 2019 09:01:13 GMT+0100 (Central European Standard Time),836,3242,The main experiment item,yes,1395,,/Users/rijn/Downloads,no,mono,no,18,no,white,no,no,None,null,768,legacy,xpyriment,osweb,1.3.3,space,space,,space,,1371,28888,,1371,,2,legacy,,1573804945264,1024,2,48000,-16,experiment,44,350,TimingShort,0,even,,61761,59529,58129,58,,54884,60379,60379,58,58,61761,28948,,TimingShort,0,6154,5,yes,8,1024,421
0,0,1294,1294,black,47,Default,no,1,,xpyriment,legacy,legacy,0,44,1,350,OSWeb experiment,uniform,undefined,11,5,5,0,0,5,5,5,5,0,0,0,5,0,1,0,0,,Fri Nov 15 2019 09:01:13 GMT+0100 (Central European Standard Time),792,3214,The main experiment item,yes,1675,,/Users/rijn/Downloads,no,mono,no,18,no,white,no,no,None,null,768,legacy,xpyriment,osweb,1.3.3,space,space,,space,,1607,28888,,1607,,2,legacy,,1573804945264,1024,2,48000,-16,experiment,44,350,TimingShort,0,even,,69096,66679,64996,58,,61767,67479,67479,58,58,69096,28948,,TimingShort,0,7761,6,yes,8,1024,421
0,0,1298,1298,black,47,Default,no,1,,xpyriment,legacy,legacy,0,44,1,350,OSWeb experiment,uniform,undefined,13,6,6,0,0,6,6,6,6,0,0,0,6,0,1,0,0,,Fri Nov 15 2019 09:01:13 GMT+0100 (Central European Standard Time),723,2916,The main experiment item,yes,1395,,/Users/rijn/Downloads,no,mono,no,18,no,white,no,no,None,null,768,legacy,xpyriment,osweb,1.3.3,space,space,,space,,1324,28888,,1324,,2,legacy,,1573804945264,1024,2,48000,-16,experiment,44,350,TimingShort,0,even,,75495,73430,72029,58,,69102,74162,74162,58,58,75495,28948,,TimingShort,0,9085,7,yes,8,1024,421
0,0,1299,1299,black,47,Default,no,1,,xpyriment,legacy,legacy,0,44,1,350,OSWeb experiment,uniform,undefined,15,7,7,0,0,7,7,7,7,0,0,0,7,0,1,0,0,,Fri Nov 15 2019 09:01:13 GMT+0100 (Central European Standard Time),830,3115,The main experiment item,yes,1535,,/Users/rijn/Downloads,no,mono,no,18,no,white,no,no,None,null,768,legacy,xpyriment,osweb,1.3.3,space,space,,space,,1305,28888,,1305,,2,legacy,,1573804945264,1024,2,48000,-16,experiment,44,350,TimingShort,0,even,,82328,80179,78629,58,,75502,81013,81013,58,58,82328,28948,,TimingShort,0,10390,8,yes,8,1024,421
0,0,1233,1233,black,47,Default,no,1,,xpyriment,legacy,legacy,0,44,1,350,OSWeb experiment,uniform,undefined,17,8,8,0,0,8,8,8,8,0,0,0,8,0,1,0,0,,Fri Nov 15 2019 09:01:13 GMT+0100 (Central European Standard Time),778,2758,The main experiment item,yes,1165,,/Users/rijn/Downloads,no,mono,no,18,no,white,no,no,None,null,768,legacy,xpyriment,osweb,1.3.3,space,space,,space,,710,28888,,710,,2,legacy,,1573804945264,1024,2,48000,-16,experiment,44,350,TimingShort,0,even,,87795,86296,85114,58,,82336,87080,87080,58,58,87795,28948,,TimingShort,0,11100,9,yes,8,1024,421
0,0,1232,1232,black,47,Default,no,1,,xpyriment,legacy,legacy,0,44,1,350,OSWeb experiment,uniform,undefined,19,9,9,0,0,9,9,9,9,0,0,0,9,0,1,0,0,,Fri Nov 15 2019 09:01:13 GMT+0100 (Central European Standard Time),868,2960,The main experiment item,yes,1165,,/Users/rijn/Downloads,no,mono,no,18,no,white,no,no,None,null,768,legacy,xpyriment,osweb,1.3.3,space,space,,space,,1217,28888,,1217,,2,legacy,,1573804945264,1024,2,48000,-16,experiment,44,350,TimingShort,0,even,,94079,91962,90781,58,,87802,92845,92845,58,58,94079,28948,,TimingShort,0,12317,10,yes,8,1024,421
0,0,1245,1245,black,47,Default,no,1,,xpyriment,legacy,legacy,0,44,1,350,OSWeb experiment,uniform,undefined,21,10,10,0,0,10,10,10,10,0,0,0,10,0,1,0,0,,Fri Nov 15 2019 09:01:13 GMT+0100 (Central European Standard Time),792,3085,The main experiment item,yes,1395,,/Users/rijn/Downloads,no,mono,no,18,no,white,no,no,None,null,768,legacy,xpyriment,osweb,1.3.3,space,space,,space,,1379,28888,,1379,,2,legacy,,1573804945264,1024,2,48000,-16,experiment,44,350,TimingShort,0,even,,100762,98578,97179,58,,94085,99379,99379,58,58,100762,28948,,TimingShort,0,13696,11,yes,8,1024,421
0,0,1224,1224,black,47,Default,no,1,,xpyriment,legacy,legacy,0,44,1,350,OSWeb experiment,uniform,undefined,23,11,11,0,0,11,11,11,11,0,0,0,11,0,1,0,0,,Fri Nov 15 2019 09:01:13 GMT+0100 (Central European Standard Time),804,2967,The main experiment item,yes,1265,,/Users/rijn/Downloads,no,mono,no,18,no,white,no,no,None,null,768,legacy,xpyriment,osweb,1.3.3,space,space,,space,,992,28888,,992,,2,legacy,,1573804945264,1024,2,48000,-16,experiment,44,350,TimingShort,0,even,,106829,105012,103745,58,,100769,105830,105830,58,58,106829,28948,,TimingShort,0,14688,12,yes,8,1024,421
0,0,1205,1205,black,47,Default,no,1,,xpyriment,legacy,legacy,0,44,1,350,OSWeb experiment,uniform,undefined,25,12,12,0,0,12,12,12,12,0,0,0,12,0,1,0,0,,Fri Nov 15 2019 09:01:13 GMT+0100 (Central European Standard Time),797,3029,The main experiment item,yes,1265,,/Users/rijn/Downloads,no,mono,no,18,no,white,no,no,None,null,768,legacy,xpyriment,osweb,1.3.3,space,space,,space,,972,28888,,972,,2,legacy,,1573804945264,1024,2,48000,-16,experiment,44,350,TimingShort,0,even,,112945,111149,109879,58,,106835,111962,111962,58,58,112945,28948,,TimingShort,0,15660,13,yes,8,1024,421
0,0,1228,1228,black,47,Default,no,1,,xpyriment,legacy,legacy,0,44,1,350,OSWeb experiment,uniform,undefined,27,13,13,0,0,13,13,13,13,0,0,0,13,0,1,0,0,,Fri Nov 15 2019 09:01:13 GMT+0100 (Central European Standard Time),729,2794,The main experiment item,yes,1395,,/Users/rijn/Downloads,no,mono,no,18,no,white,no,no,None,null,768,legacy,xpyriment,osweb,1.3.3,space,space,,space,,1534,28888,,1534,,2,legacy,,1573804945264,1024,2,48000,-16,experiment,44,350,TimingShort,0,even,,119446,117162,115762,58,,112953,117896,117896,58,58,119446,28948,,TimingShort,0,17194,14,yes,8,1024,421
0,0,1263,1263,black,47,Default,no,1,,xpyriment,legacy,legacy,0,44,1,350,OSWeb experiment,uniform,undefined,29,14,14,0,0,14,14,14,14,0,0,0,14,0,1,0,0,,Fri Nov 15 2019 09:01:13 GMT+0100 (Central European Standard Time),842,3038,The main experiment item,yes,1535,,/Users/rijn/Downloads,no,mono,no,18,no,white,no,no,None,null,768,legacy,xpyriment,osweb,1.3.3,space,space,,space,,1758,28888,,1758,,2,legacy,,1573804945264,1024,2,48000,-16,experiment,44,350,TimingShort,0,even,,126662,124046,122496,58,,119452,124896,124896,58,58,126662,28948,,TimingShort,0,18952,15,yes,8,1024,421
0,0,1279,1279,black,47,Default,no,1,,xpyriment,legacy,legacy,0,44,1,350,OSWeb experiment,uniform,undefined,31,15,15,0,0,15,15,15,15,0,0,0,15,0,1,0,0,,Fri Nov 15 2019 09:01:13 GMT+0100 (Central European Standard Time),835,2912,The main experiment item,yes,1535,,/Users/rijn/Downloads,no,mono,no,18,no,white,no,no,None,null,768,legacy,xpyriment,osweb,1.3.3,space,space,,space,,1506,28888,,1506,,2,legacy,,1573804945264,1024,2,48000,-16,experiment,44,350,TimingShort,0,even,,133512,131146,129596,58,,126668,131996,131996,58,58,133512,28948,,TimingShort,0,20458,16,yes,8,1024,421
0,0,1252,1252,black,47,Default,no,1,,xpyriment,legacy,legacy,0,44,1,350,OSWeb experiment,uniform,undefined,33,16,16,0,0,16,16,16,16,0,0,0,16,0,1,0,0,,Fri Nov 15 2019 09:01:13 GMT+0100 (Central European Standard Time),704,3043,The main experiment item,yes,1675,,/Users/rijn/Downloads,no,mono,no,18,no,white,no,no,None,null,768,legacy,xpyriment,osweb,1.3.3,space,space,,space,,825,28888,,825,,2,legacy,,1573804945264,1024,2,48000,-16,experiment,44,350,TimingShort,0,even,,139812,138263,136580,58,,133518,138980,138981,58,58,139812,28948,,TimingShort,0,21283,17,yes,8,1024,421
0,0,1271,1271,black,47,Default,no,1,,xpyriment,legacy,legacy,0,44,1,350,OSWeb experiment,uniform,undefined,35,17,17,0,0,17,17,17,17,0,0,0,17,0,1,0,0,,Fri Nov 15 2019 09:01:13 GMT+0100 (Central European Standard Time),837,3011,The main experiment item,yes,1535,,/Users/rijn/Downloads,no,mono,no,18,no,white,no,no,None,null,768,legacy,xpyriment,osweb,1.3.3,space,space,,space,,1591,28888,,1591,,2,legacy,,1573804945264,1024,2,48000,-16,experiment,44,350,TimingShort,0,even,,146845,144395,142846,58,,139819,145247,145247,58,58,146845,28948,,TimingShort,0,22874,18,yes,8,1024,421
0,0,1255,1255,black,47,Default,no,1,,xpyriment,legacy,legacy,0,44,1,350,OSWeb experiment,uniform,undefined,37,18,18,0,0,18,18,18,18,0,0,0,18,0,1,0,0,,Fri Nov 15 2019 09:01:13 GMT+0100 (Central European Standard Time),776,3184,The main experiment item,yes,1165,,/Users/rijn/Downloads,no,mono,no,18,no,white,no,no,None,null,768,legacy,xpyriment,osweb,1.3.3,space,space,,space,,969,28888,,969,,2,legacy,,1573804945264,1024,2,48000,-16,experiment,44,350,TimingShort,0,even,,152995,151229,150046,58,,146852,152013,152013,58,58,152996,28948,,TimingShort,0,23843,19,yes,8,1024,421
0,0,1250,1250,black,47,Default,no,1,,xpyriment,legacy,legacy,0,44,1,350,OSWeb experiment,uniform,undefined,39,19,19,0,0,19,19,19,19,0,0,0,19,0,1,0,0,,Fri Nov 15 2019 09:01:13 GMT+0100 (Central European Standard Time),885,2823,The main experiment item,yes,1395,,/Users/rijn/Downloads,no,mono,no,18,no,white,no,no,None,null,768,legacy,xpyriment,osweb,1.3.3,space,space,,space,,1157,28888,,1157,,2,legacy,,1573804945264,1024,2,48000,-16,experiment,44,350,TimingShort,0,even,,159296,157229,155830,58,,152999,158129,158129,58,58,159296,28948,,TimingShort,0,25000,20,yes,8,1024,421
0,0,1252,1252,black,47,Default,no,1,,xpyriment,legacy,legacy,0,44,1,350,OSWeb experiment,uniform,undefined,41,20,20,0,0,20,20,20,20,0,0,0,20,0,1,0,0,,Fri Nov 15 2019 09:01:13 GMT+0100 (Central European Standard Time),807,3056,The main experiment item,yes,1265,,/Users/rijn/Downloads,no,mono,no,18,no,white,no,no,None,null,768,legacy,xpyriment,osweb,1.3.3,space,space,,space,,1296,28888,,1296,,2,legacy,,1573804945264,1024,2,48000,-16,experiment,44,350,TimingShort,0,even,,165745,163630,162363,58,,159303,164446,164446,58,58,165745,28948,,TimingShort,0,26296,21,yes,8,1024,421
0,0,1247,1247,black,47,Default,no,1,,xpyriment,legacy,legacy,0,44,1,350,OSWeb experiment,uniform,undefined,43,21,21,0,0,21,21,21,21,0,0,0,21,0,1,0,0,,Fri Nov 15 2019 09:01:13 GMT+0100 (Central European Standard Time),765,2990,The main experiment item,yes,1265,,/Users/rijn/Downloads,no,mono,no,18,no,white,no,no,None,null,768,legacy,xpyriment,osweb,1.3.3,space,space,,space,,1130,28888,,1130,,2,legacy,,1573804945264,1024,2,48000,-16,experiment,44,350,TimingShort,0,even,,171913,170013,168746,58,,165751,170780,170780,58,58,171913,28948,,TimingShort,0,27426,22,yes,8,1024,421
0,0,1255,1255,black,47,Default,no,1,,xpyriment,legacy,legacy,0,44,1,350,OSWeb experiment,uniform,undefined,45,22,22,0,0,22,22,22,22,0,0,0,22,0,1,0,0,,Fri Nov 15 2019 09:01:13 GMT+0100 (Central European Standard Time),795,2910,The main experiment item,yes,1535,,/Users/rijn/Downloads,no,mono,no,18,no,white,no,no,None,null,768,legacy,xpyriment,osweb,1.3.3,space,space,,space,,1449,28888,,1449,,2,legacy,,1573804945264,1024,2,48000,-16,experiment,44,350,TimingShort,0,even,,178662,176396,174847,58,,171919,177197,177197,58,58,178662,28948,,TimingShort,0,28875,23,yes,8,1024,421
0,0,1258,1258,black,47,Default,no,1,,xpyriment,legacy,legacy,0,44,1,350,OSWeb experiment,uniform,undefined,47,23,23,0,0,23,23,23,23,0,0,0,23,0,1,0,0,,Fri Nov 15 2019 09:01:13 GMT+0100 (Central European Standard Time),829,3090,The main experiment item,yes,1265,,/Users/rijn/Downloads,no,mono,no,18,no,white,no,no,None,null,768,legacy,xpyriment,osweb,1.3.3,space,space,,space,,1318,28888,,1318,,2,legacy,,1573804945264,1024,2,48000,-16,experiment,44,350,TimingShort,0,even,,185196,183030,181763,58,,178668,183864,183864,58,58,185196,28948,,TimingShort,0,30193,24,yes,8,1024,421
0,0,1268,1268,black,47,Default,no,1,,xpyriment,legacy,legacy,0,44,1,350,OSWeb experiment,uniform,undefined,49,24,24,0,0,24,24,24,24,0,0,0,24,0,1,0,0,,Fri Nov 15 2019 09:01:13 GMT+0100 (Central European Standard Time),853,2896,The main experiment item,yes,1535,,/Users/rijn/Downloads,no,mono,no,18,no,white,no,no,None,null,768,legacy,xpyriment,osweb,1.3.3,space,space,,space,,1500,28888,,1500,,2,legacy,,1573804945264,1024,2,48000,-16,experiment,44,350,TimingShort,0,even,,192046,189662,188113,58,,185204,190530,190530,58,58,192046,28948,,TimingShort,0,31693,25,yes,8,1024,421
0,0,1255,1255,black,47,Default,no,1,,xpyriment,legacy,legacy,0,44,1,350,OSWeb experiment,uniform,undefined,51,25,25,0,0,25,25,25,25,0,0,0,25,0,1,0,0,,Fri Nov 15 2019 09:01:13 GMT+0100 (Central European Standard Time),749,2886,The main experiment item,yes,1165,,/Users/rijn/Downloads,no,mono,no,18,no,white,no,no,None,null,768,legacy,xpyriment,osweb,1.3.3,space,space,,space,,925,28888,,925,,2,legacy,,1573804945264,1024,2,48000,-16,experiment,44,350,TimingShort,0,even,,197813,196129,194948,58,,192052,196881,196881,58,58,197813,28948,,TimingShort,0,32618,26,yes,8,1024,421
0,0,1248,1248,black,47,Default,no,1,,xpyriment,legacy,legacy,0,44,1,350,OSWeb experiment,uniform,undefined,53,26,26,0,0,26,26,26,26,0,0,0,26,0,1,0,0,,Fri Nov 15 2019 09:01:13 GMT+0100 (Central European Standard Time),727,2869,The main experiment item,yes,1165,,/Users/rijn/Downloads,no,mono,no,18,no,white,no,no,None,null,768,legacy,xpyriment,osweb,1.3.3,space,space,,space,,1089,28888,,1089,,2,legacy,,1573804945264,1024,2,48000,-16,experiment,44,350,TimingShort,0,even,,203696,201863,200696,58,,197819,202597,202597,58,58,203696,28948,,TimingShort,0,33707,27,yes,8,1024,421
0,0,1242,1242,black,47,Default,no,1,,xpyriment,legacy,legacy,0,44,1,350,OSWeb experiment,uniform,undefined,55,27,27,0,0,27,27,27,27,0,0,0,27,0,1,0,0,,Fri Nov 15 2019 09:01:13 GMT+0100 (Central European Standard Time),764,2953,The main experiment item,yes,1165,,/Users/rijn/Downloads,no,mono,no,18,no,white,no,no,None,null,768,legacy,xpyriment,osweb,1.3.3,space,space,,space,,1073,28888,,1073,,2,legacy,,1573804945264,1024,2,48000,-16,experiment,44,350,TimingShort,0,even,,209680,207830,206663,58,,203702,208597,208597,58,58,209680,28948,,TimingShort,0,34780,28,yes,8,1024,421
0,0,1250,1250,black,47,Default,no,1,,xpyriment,legacy,legacy,0,44,1,350,OSWeb experiment,uniform,undefined,57,28,28,0,0,28,28,28,28,0,0,0,28,0,1,0,0,,Fri Nov 15 2019 09:01:13 GMT+0100 (Central European Standard Time),805,3138,The main experiment item,yes,1165,,/Users/rijn/Downloads,no,mono,no,18,no,white,no,no,None,null,768,legacy,xpyriment,osweb,1.3.3,space,space,,space,,1464,28888,,1464,,2,legacy,,1573804945264,1024,2,48000,-16,experiment,44,350,TimingShort,0,even,,216280,213997,212830,58,,209688,214814,214814,58,58,216280,28948,,TimingShort,0,36244,29,yes,8,1024,421
0,0,1246,1246,black,47,Default,no,1,,xpyriment,legacy,legacy,0,44,1,350,OSWeb experiment,uniform,undefined,59,29,29,0,0,29,29,29,29,0,0,0,29,0,1,0,0,,Fri Nov 15 2019 09:01:13 GMT+0100 (Central European Standard Time),819,3144,The main experiment item,yes,1395,,/Users/rijn/Downloads,no,mono,no,18,no,white,no,no,None,null,768,legacy,xpyriment,osweb,1.3.3,space,space,,space,,1134,28888,,1134,,2,legacy,,1573804945264,1024,2,48000,-16,experiment,44,350,TimingShort,0,even,,222829,220846,219447,58,,216286,221680,221680,58,58,222829,28948,,TimingShort,0,37378,30,yes,8,1024,421
0,0,1299,1299,black,47,Default,no,1,,xpyriment,legacy,legacy,0,44,1,350,OSWeb experiment,uniform,undefined,61,30,30,0,0,30,30,30,30,0,0,0,30,0,1,0,0,,Fri Nov 15 2019 09:01:13 GMT+0100 (Central European Standard Time),754,3212,The main experiment item,yes,1535,,/Users/rijn/Downloads,no,mono,no,18,no,white,no,no,None,null,768,legacy,xpyriment,osweb,1.3.3,space,space,,space,,2906,28888,,2906,,2,legacy,,1573804945264,1024,2,48000,-16,experiment,44,350,TimingShort,0,even,,231296,227613,226063,58,,222837,228380,228380,58,58,231296,28948,,TimingShort,0,40284,31,yes,8,1024,421
0,0,1297,1297,black,47,Default,no,1,,xpyriment,legacy,legacy,0,44,1,350,OSWeb experiment,uniform,undefined,63,31,31,0,0,31,31,31,31,0,0,0,31,0,1,0,0,,Fri Nov 15 2019 09:01:13 GMT+0100 (Central European Standard Time),824,2893,The main experiment item,yes,1265,,/Users/rijn/Downloads,no,mono,no,18,no,white,no,no,None,null,768,legacy,xpyriment,osweb,1.3.3,space,space,,space,,1205,28888,,1205,,2,legacy,,1573804945264,1024,2,48000,-16,experiment,44,350,TimingShort,0,even,,237531,235480,234213,58,,231303,236313,236313,58,58,237531,28948,,TimingShort,0,41489,32,yes,8,1024,421
0,0,1306,1306,black,47,Default,no,1,,xpyriment,legacy,legacy,0,44,1,350,OSWeb experiment,uniform,undefined,65,32,32,0,0,32,32,32,32,0,0,0,32,0,1,0,0,,Fri Nov 15 2019 09:01:13 GMT+0100 (Central European Standard Time),820,3167,The main experiment item,yes,1675,,/Users/rijn/Downloads,no,mono,no,18,no,white,no,no,None,null,768,legacy,xpyriment,osweb,1.3.3,space,space,,space,,1599,28888,,1599,,2,legacy,,1573804945264,1024,2,48000,-16,experiment,44,350,TimingShort,0,even,,244846,242397,240714,58,,237537,243231,243231,58,58,244846,28948,,TimingShort,0,43088,33,yes,8,1024,421
0,0,1319,1319,black,47,Default,no,1,,xpyriment,legacy,legacy,0,44,1,350,OSWeb experiment,uniform,undefined,67,33,33,0,0,33,33,33,33,0,0,0,33,0,1,0,0,,Fri Nov 15 2019 09:01:13 GMT+0100 (Central European Standard Time),883,2772,The main experiment item,yes,1535,,/Users/rijn/Downloads,no,mono,no,18,no,white,no,no,None,null,768,legacy,xpyriment,osweb,1.3.3,space,space,,space,,1765,28888,,1765,,2,legacy,,1573804945264,1024,2,48000,-16,experiment,44,350,TimingShort,0,even,,251847,249180,247630,58,,244853,250081,250081,58,58,251847,28948,,TimingShort,0,44853,34,yes,8,1024,421
0,0,1314,1314,black,47,Default,no,1,,xpyriment,legacy,legacy,0,44,1,350,OSWeb experiment,uniform,undefined,69,34,34,0,0,34,34,34,34,0,0,0,34,0,1,0,0,,Fri Nov 15 2019 09:01:13 GMT+0100 (Central European Standard Time),867,2872,The main experiment item,yes,1535,,/Users/rijn/Downloads,no,mono,no,18,no,white,no,no,None,null,768,legacy,xpyriment,osweb,1.3.3,space,space,,space,,1129,28888,,1129,,2,legacy,,1573804945264,1024,2,48000,-16,experiment,44,350,TimingShort,0,even,,258297,256280,254731,58,,251854,257164,257165,58,58,258297,28948,,TimingShort,0,45982,35,yes,8,1024,421
0,0,1297,1297,black,47,Default,no,1,,xpyriment,legacy,legacy,0,44,1,350,OSWeb experiment,uniform,undefined,71,35,35,0,0,35,35,35,35,0,0,0,35,0,1,0,0,,Fri Nov 15 2019 09:01:13 GMT+0100 (Central European Standard Time),745,3221,The main experiment item,yes,1165,,/Users/rijn/Downloads,no,mono,no,18,no,white,no,no,None,null,768,legacy,xpyriment,osweb,1.3.3,space,space,,space,,702,28888,,702,,2,legacy,,1573804945264,1024,2,48000,-16,experiment,44,350,TimingShort,0,even,,264180,262714,261532,58,,258304,263464,263464,58,58,264181,28948,,TimingShort,0,46684,36,yes,8,1024,421
0,0,1297,1297,black,47,Default,no,1,,xpyriment,legacy,legacy,0,44,1,350,OSWeb experiment,uniform,undefined,73,36,36,0,0,36,36,36,36,0,0,0,36,0,1,0,0,,Fri Nov 15 2019 09:01:13 GMT+0100 (Central European Standard Time),822,3165,The main experiment item,yes,1675,,/Users/rijn/Downloads,no,mono,no,18,no,white,no,no,None,null,768,legacy,xpyriment,osweb,1.3.3,space,space,,space,,1293,28888,,1293,,2,legacy,,1573804945264,1024,2,48000,-16,experiment,44,350,TimingShort,0,even,,271180,269050,267365,58,,264187,269880,269881,58,58,271180,28948,,TimingShort,0,47977,37,yes,8,1024,421
0,0,1294,1294,black,47,Default,no,1,,xpyriment,legacy,legacy,0,44,1,350,OSWeb experiment,uniform,undefined,75,37,37,0,0,37,37,37,37,0,0,0,37,0,1,0,0,,Fri Nov 15 2019 09:01:13 GMT+0100 (Central European Standard Time),758,2940,The main experiment item,yes,1265,,/Users/rijn/Downloads,no,mono,no,18,no,white,no,no,None,null,768,legacy,xpyriment,osweb,1.3.3,space,space,,space,,1185,28888,,1185,,2,legacy,,1573804945264,1024,2,48000,-16,experiment,44,350,TimingShort,0,even,,277380,275414,274131,58,,271187,276181,276181,58,58,277380,28948,,TimingShort,0,49162,38,yes,8,1024,421
0,0,1292,1292,black,47,Default,no,1,,xpyriment,legacy,legacy,0,44,1,350,OSWeb experiment,uniform,undefined,77,38,38,0,0,38,38,38,38,0,0,0,38,0,1,0,0,,Fri Nov 15 2019 09:01:13 GMT+0100 (Central European Standard Time),859,2909,The main experiment item,yes,1165,,/Users/rijn/Downloads,no,mono,no,18,no,white,no,no,None,null,768,legacy,xpyriment,osweb,1.3.3,space,space,,space,,1242,28888,,1242,,2,legacy,,1573804945264,1024,2,48000,-16,experiment,44,350,TimingShort,0,even,,283597,281481,280298,58,,277387,282348,282348,58,58,283597,28948,,TimingShort,0,50404,39,yes,8,1024,421
0,0,1291,1291,black,47,Default,no,1,,xpyriment,legacy,legacy,0,44,1,350,OSWeb experiment,uniform,undefined,79,39,39,0,0,39,39,39,39,0,0,0,39,0,1,0,0,,Fri Nov 15 2019 09:01:13 GMT+0100 (Central European Standard Time),717,3242,The main experiment item,yes,1265,,/Users/rijn/Downloads,no,mono,no,18,no,white,no,no,None,null,768,legacy,xpyriment,osweb,1.3.3,space,space,,space,,1229,28888,,1229,,2,legacy,,1573804945264,1024,2,48000,-16,experiment,44,350,TimingShort,0,even,,290097,288130,286848,58,,283603,288865,288865,58,58,290097,28948,,TimingShort,0,51633,40,yes,8,1024,421
0,0,1290,1290,black,47,Default,no,1,,xpyriment,legacy,legacy,0,44,1,350,OSWeb experiment,uniform,undefined,81,40,40,0,0,40,40,40,40,0,0,0,40,0,1,0,0,,Fri Nov 15 2019 09:01:13 GMT+0100 (Central European Standard Time),731,3019,The main experiment item,yes,1535,,/Users/rijn/Downloads,no,mono,no,18,no,white,no,no,None,null,768,legacy,xpyriment,osweb,1.3.3,space,space,,space,,1255,28888,,1255,,2,legacy,,1573804945264,1024,2,48000,-16,experiment,44,350,TimingShort,0,even,,296680,294680,293131,58,,290105,295415,295415,58,58,296680,28948,,TimingShort,0,52888,41,yes,8,1024,421
0,0,1292,1292,black,47,Default,no,1,,xpyriment,legacy,legacy,0,44,1,350,OSWeb experiment,uniform,undefined,83,41,41,0,0,41,41,41,41,0,0,0,41,0,1,0,0,,Fri Nov 15 2019 09:01:13 GMT+0100 (Central European Standard Time),769,2827,The main experiment item,yes,1265,,/Users/rijn/Downloads,no,mono,no,18,no,white,no,no,None,null,768,legacy,xpyriment,osweb,1.3.3,space,space,,space,,1360,28888,,1360,,2,legacy,,1573804945264,1024,2,48000,-16,experiment,44,350,TimingShort,0,even,,302964,300814,299531,58,,296687,301598,301598,58,58,302964,28948,,TimingShort,0,54248,42,yes,8,1024,421
0,0,1290,1290,black,47,Default,no,1,,xpyriment,legacy,legacy,0,44,1,350,OSWeb experiment,uniform,undefined,85,42,42,0,0,42,42,42,42,0,0,0,42,0,1,0,0,,Fri Nov 15 2019 09:01:13 GMT+0100 (Central European Standard Time),793,2782,The main experiment item,yes,1395,,/Users/rijn/Downloads,no,mono,no,18,no,white,no,no,None,null,768,legacy,xpyriment,osweb,1.3.3,space,space,,space,,1232,28888,,1232,,2,legacy,,1573804945264,1024,2,48000,-16,experiment,44,350,TimingShort,0,even,,309214,307165,305766,58,,302970,307965,307965,58,58,309214,28948,,TimingShort,0,55480,43,yes,8,1024,421
0,0,1290,1290,black,47,Default,no,1,,xpyriment,legacy,legacy,0,44,1,350,OSWeb experiment,uniform,undefined,87,43,43,0,0,43,43,43,43,0,0,0,43,0,1,0,0,,Fri Nov 15 2019 09:01:13 GMT+0100 (Central European Standard Time),729,3121,The main experiment item,yes,1675,,/Users/rijn/Downloads,no,mono,no,18,no,white,no,no,None,null,768,legacy,xpyriment,osweb,1.3.3,space,space,,space,,1298,28888,,1298,,2,legacy,,1573804945264,1024,2,48000,-16,experiment,44,350,TimingShort,0,even,,316064,314031,312348,58,,309220,314764,314764,58,58,316064,28948,,TimingShort,0,56778,44,yes,8,1024,421
0,0,1290,1290,black,47,Default,no,1,,xpyriment,legacy,legacy,0,44,1,350,OSWeb experiment,uniform,undefined,89,44,44,0,0,44,44,44,44,0,0,0,44,0,1,0,0,,Fri Nov 15 2019 09:01:13 GMT+0100 (Central European Standard Time),733,3086,The main experiment item,yes,1165,,/Users/rijn/Downloads,no,mono,no,18,no,white,no,no,None,null,768,legacy,xpyriment,osweb,1.3.3,space,space,,space,,1253,28888,,1253,,2,legacy,,1573804945264,1024,2,48000,-16,experiment,44,350,TimingShort,0,even,,322347,320331,319164,58,,316070,321081,321081,58,58,322347,28948,,TimingShort,0,58031,45,yes,8,1024,421
0,0,1279,1279,black,47,Default,no,1,,xpyriment,legacy,legacy,0,44,1,350,OSWeb experiment,uniform,undefined,91,45,45,0,0,45,45,45,45,0,0,0,45,0,1,0,0,,Fri Nov 15 2019 09:01:13 GMT+0100 (Central European Standard Time),745,2863,The main experiment item,yes,1395,,/Users/rijn/Downloads,no,mono,no,18,no,white,no,no,None,null,768,legacy,xpyriment,osweb,1.3.3,space,space,,space,,825,28888,,825,,2,legacy,,1573804945264,1024,2,48000,-16,experiment,44,350,TimingShort,0,even,,328214,326632,325231,58,,322355,327381,327381,58,58,328214,28948,,TimingShort,0,58856,46,yes,8,1024,421
0,0,1286,1286,black,47,Default,no,1,,xpyriment,legacy,legacy,0,44,1,350,OSWeb experiment,uniform,undefined,93,46,46,0,0,46,46,46,46,0,0,0,46,0,1,0,0,,Fri Nov 15 2019 09:01:13 GMT+0100 (Central European Standard Time),877,3103,The main experiment item,yes,1395,,/Users/rijn/Downloads,no,mono,no,18,no,white,no,no,None,null,768,legacy,xpyriment,osweb,1.3.3,space,space,,space,,1591,28888,,1591,,2,legacy,,1573804945264,1024,2,48000,-16,experiment,44,350,TimingShort,0,even,,335214,332732,331331,58,,328221,333615,333615,58,58,335214,28948,,TimingShort,0,60447,47,yes,8,1024,421
0,0,1283,1283,black,47,Default,no,1,,xpyriment,legacy,legacy,0,44,1,350,OSWeb experiment,uniform,undefined,95,47,47,0,0,47,47,47,47,0,0,0,47,0,1,0,0,,Fri Nov 15 2019 09:01:13 GMT+0100 (Central European Standard Time),734,2973,The main experiment item,yes,1165,,/Users/rijn/Downloads,no,mono,no,18,no,white,no,no,None,null,768,legacy,xpyriment,osweb,1.3.3,space,space,,space,,1123,28888,,1123,,2,legacy,,1573804945264,1024,2,48000,-16,experiment,44,350,TimingShort,0,even,,341247,339364,338198,58,,335220,340115,340115,58,58,341247,28948,,TimingShort,0,61570,48,yes,8,1024,421
0,0,1285,1285,black,47,Default,no,1,,xpyriment,legacy,legacy,0,44,1,350,OSWeb experiment,uniform,undefined,97,48,48,0,0,48,48,48,48,0,0,0,48,0,1,0,0,,Fri Nov 15 2019 09:01:13 GMT+0100 (Central European Standard Time),818,3013,The main experiment item,yes,1265,,/Users/rijn/Downloads,no,mono,no,18,no,white,no,no,None,null,768,legacy,xpyriment,osweb,1.3.3,space,space,,space,,1416,28888,,1416,,2,legacy,,1573804945264,1024,2,48000,-16,experiment,44,350,TimingShort,0,even,,347814,345564,344282,58,,341254,346398,346398,58,58,347814,28948,,TimingShort,0,62986,49,yes,8,1024,421
0,0,1299,1299,black,47,Default,no,1,,xpyriment,legacy,legacy,0,44,1,350,OSWeb experiment,uniform,undefined,99,49,49,0,0,49,49,49,49,0,0,0,49,0,1,0,0,,Fri Nov 15 2019 09:01:13 GMT+0100 (Central European Standard Time),772,3175,The main experiment item,yes,1675,,/Users/rijn/Downloads,no,mono,no,18,no,white,no,no,None,null,768,legacy,xpyriment,osweb,1.3.3,space,space,,space,,1949,28888,,1949,,2,legacy,,1573804945264,1024,2,48000,-16,experiment,44,350,TimingShort,0,even,,355430,352697,351015,58,,347822,353481,353481,58,58,355430,28948,,TimingShort,0,64935,50,yes,8,1024,421
0,0,1300,1300,black,47,Default,no,1,,xpyriment,legacy,legacy,0,44,1,350,OSWeb experiment,uniform,undefined,101,50,50,0,0,50,50,50,50,0,0,0,50,0,1,0,0,,Fri Nov 15 2019 09:01:13 GMT+0100 (Central European Standard Time),839,2797,The main experiment item,yes,1675,,/Users/rijn/Downloads,no,mono,no,18,no,white,no,no,None,null,768,legacy,xpyriment,osweb,1.3.3,space,space,,space,,1343,28888,,1343,,2,legacy,,1573804945264,1024,2,48000,-16,experiment,44,350,TimingShort,0,even,,362131,359932,358248,58,,355436,360782,360782,58,58,362131,28948,,TimingShort,0,66278,51,yes,8,1024,421
0,0,1313,1313,black,47,Default,no,1,,xpyriment,legacy,legacy,0,44,1,350,OSWeb experiment,uniform,undefined,103,51,51,0,0,51,51,51,51,0,0,0,51,0,1,0,0,,Fri Nov 15 2019 09:01:13 GMT+0100 (Central European Standard Time),750,3038,The main experiment item,yes,1265,,/Users/rijn/Downloads,no,mono,no,18,no,white,no,no,None,null,768,legacy,xpyriment,osweb,1.3.3,space,space,,space,,1999,28888,,1999,,2,legacy,,1573804945264,1024,2,48000,-16,experiment,44,350,TimingShort,0,even,,369215,366447,365181,58,,362137,367199,367199,58,58,369215,28948,,TimingShort,0,68277,52,yes,8,1024,421
0,0,1317,1317,black,47,Default,no,1,,xpyriment,legacy,legacy,0,44,1,350,OSWeb experiment,uniform,undefined,105,52,52,0,0,52,52,52,52,0,0,0,52,0,1,0,0,,Fri Nov 15 2019 09:01:13 GMT+0100 (Central European Standard Time),840,2920,The main experiment item,yes,1395,,/Users/rijn/Downloads,no,mono,no,18,no,white,no,no,None,null,768,legacy,xpyriment,osweb,1.3.3,space,space,,space,,1510,28888,,1510,,2,legacy,,1573804945264,1024,2,48000,-16,experiment,44,350,TimingShort,0,even,,375914,373548,372148,58,,369221,374399,374399,58,58,375914,28948,,TimingShort,0,69787,53,yes,8,1024,421
0,0,1323,1323,black,47,Default,no,1,,xpyriment,legacy,legacy,0,44,1,350,OSWeb experiment,uniform,undefined,107,53,53,0,0,53,53,53,53,0,0,0,53,0,1,0,0,,Fri Nov 15 2019 09:01:13 GMT+0100 (Central European Standard Time),702,3219,The main experiment item,yes,1535,,/Users/rijn/Downloads,no,mono,no,18,no,white,no,no,None,null,768,legacy,xpyriment,osweb,1.3.3,space,space,,space,,1639,28888,,1639,,2,legacy,,1573804945264,1024,2,48000,-16,experiment,44,350,TimingShort,0,even,,383065,380698,379149,58,,375922,381415,381415,58,58,383065,28948,,TimingShort,0,71426,54,yes,8,1024,421
0,0,1323,1323,black,47,Default,no,1,,xpyriment,legacy,legacy,0,44,1,350,OSWeb experiment,uniform,undefined,109,54,54,0,0,54,54,54,54,0,0,0,54,0,1,0,0,,Fri Nov 15 2019 09:01:13 GMT+0100 (Central European Standard Time),864,3239,The main experiment item,yes,1265,,/Users/rijn/Downloads,no,mono,no,18,no,white,no,no,None,null,768,legacy,xpyriment,osweb,1.3.3,space,space,,space,,1315,28888,,1315,,2,legacy,,1573804945264,1024,2,48000,-16,experiment,44,350,TimingShort,0,even,,389797,387599,386332,58,,383075,388466,388466,58,58,389797,28948,,TimingShort,0,72741,55,yes,8,1024,421
0,0,1319,1319,black,47,Default,no,1,,xpyriment,legacy,legacy,0,44,1,350,OSWeb experiment,uniform,undefined,111,55,55,0,0,55,55,55,55,0,0,0,55,0,1,0,0,,Fri Nov 15 2019 09:01:13 GMT+0100 (Central European Standard Time),836,3151,The main experiment item,yes,1265,,/Users/rijn/Downloads,no,mono,no,18,no,white,no,no,None,null,768,legacy,xpyriment,osweb,1.3.3,space,space,,space,,1124,28888,,1124,,2,legacy,,1573804945264,1024,2,48000,-16,experiment,44,350,TimingShort,0,even,,396214,394231,392965,58,,389801,395082,395082,58,58,396214,28948,,TimingShort,0,73865,56,yes,8,1024,421
0,0,1332,1332,black,47,Default,no,1,,xpyriment,legacy,legacy,0,44,1,350,OSWeb experiment,uniform,undefined,113,56,56,0,0,56,56,56,56,0,0,0,56,0,1,0,0,,Fri Nov 15 2019 09:01:13 GMT+0100 (Central European Standard Time),846,3135,The main experiment item,yes,1675,,/Users/rijn/Downloads,no,mono,no,18,no,white,no,no,None,null,768,legacy,xpyriment,osweb,1.3.3,space,space,,space,,2075,28888,,2075,,2,legacy,,1573804945264,1024,2,48000,-16,experiment,44,350,TimingShort,0,even,,403982,401049,399366,58,,396220,401899,401899,58,58,403982,28948,,TimingShort,0,75940,57,yes,8,1024,421
0,0,1327,1327,black,47,Default,no,1,,xpyriment,legacy,legacy,0,44,1,350,OSWeb experiment,uniform,undefined,115,57,57,0,0,57,57,57,57,0,0,0,57,0,1,0,0,,Fri Nov 15 2019 09:01:13 GMT+0100 (Central European Standard Time),709,3111,The main experiment item,yes,1675,,/Users/rijn/Downloads,no,mono,no,18,no,white,no,no,None,null,768,legacy,xpyriment,osweb,1.3.3,space,space,,space,,1033,28888,,1033,,2,legacy,,1573804945264,1024,2,48000,-16,experiment,44,350,TimingShort,0,even,,410565,408798,407116,58,,403988,409516,409516,58,58,410565,28948,,TimingShort,0,76973,58,yes,8,1024,421
0,0,1334,1334,black,47,Default,no,1,,xpyriment,legacy,legacy,0,44,1,350,OSWeb experiment,uniform,undefined,117,58,58,0,0,58,58,58,58,0,0,0,58,0,1,0,0,,Fri Nov 15 2019 09:01:13 GMT+0100 (Central European Standard Time),744,2836,The main experiment item,yes,1675,,/Users/rijn/Downloads,no,mono,no,18,no,white,no,no,None,null,768,legacy,xpyriment,osweb,1.3.3,space,space,,space,,1724,28888,,1724,,2,legacy,,1573804945264,1024,2,48000,-16,experiment,44,350,TimingShort,0,even,,417582,415099,413416,58,,410571,415849,415849,58,58,417582,28948,,TimingShort,0,78697,59,yes,8,1024,421
0,0,1339,1339,black,47,Default,no,1,,xpyriment,legacy,legacy,0,44,1,350,OSWeb experiment,uniform,undefined,119,59,59,0,0,59,59,59,59,0,0,0,59,0,1,0,0,,Fri Nov 15 2019 09:01:13 GMT+0100 (Central European Standard Time),890,3019,The main experiment item,yes,1535,,/Users/rijn/Downloads,no,mono,no,18,no,white,no,no,None,null,768,legacy,xpyriment,osweb,1.3.3,space,space,,space,,1669,28888,,1669,,2,legacy,,1573804945264,1024,2,48000,-16,experiment,44,350,TimingShort,0,even,,424749,422165,420616,58,,417589,423065,423065,58,58,424749,28948,,TimingShort,0,80366,60,yes,8,1024,421
0,0,1337,1337,black,47,Default,no,1,,xpyriment,legacy,legacy,0,44,1,350,OSWeb experiment,uniform,undefined,121,60,60,0,0,60,60,60,60,0,0,0,60,0,1,0,0,,Fri Nov 15 2019 09:01:13 GMT+0100 (Central European Standard Time),887,2917,The main experiment item,yes,1265,,/Users/rijn/Downloads,no,mono,no,18,no,white,no,no,None,null,768,legacy,xpyriment,osweb,1.3.3,space,space,,space,,1187,28888,,1187,,2,legacy,,1573804945264,1024,2,48000,-16,experiment,44,350,TimingShort,0,even,,431049,428949,427682,58,,424755,429850,429850,58,58,431049,28948,,TimingShort,0,81553,61,yes,8,1024,421
0,0,1337,1337,black,47,Default,no,1,,xpyriment,legacy,legacy,0,44,1,350,OSWeb experiment,uniform,undefined,123,61,61,0,0,61,61,61,61,0,0,0,61,0,1,0,0,,Fri Nov 15 2019 09:01:13 GMT+0100 (Central European Standard Time),747,2884,The main experiment item,yes,1675,,/Users/rijn/Downloads,no,mono,no,18,no,white,no,no,None,null,768,legacy,xpyriment,osweb,1.3.3,space,space,,space,,1335,28888,,1335,,2,legacy,,1573804945264,1024,2,48000,-16,experiment,44,350,TimingShort,0,even,,437731,435632,433948,58,,431055,436382,436383,58,58,437731,28948,,TimingShort,0,82888,62,yes,8,1024,421
0,0,1337,1337,black,47,Default,no,1,,xpyriment,legacy,legacy,0,44,1,350,OSWeb experiment,uniform,undefined,125,62,62,0,0,62,62,62,62,0,0,0,62,0,1,0,0,,Fri Nov 15 2019 09:01:13 GMT+0100 (Central European Standard Time),806,2869,The main experiment item,yes,1265,,/Users/rijn/Downloads,no,mono,no,18,no,white,no,no,None,null,768,legacy,xpyriment,osweb,1.3.3,space,space,,space,,1312,28888,,1312,,2,legacy,,1573804945264,1024,2,48000,-16,experiment,44,350,TimingShort,0,even,,444032,441899,440618,58,,437737,442717,442717,58,58,444032,28948,,TimingShort,0,84200,63,yes,8,1024,421
0,0,1335,1335,black,47,Default,no,1,,xpyriment,legacy,legacy,0,44,1,350,OSWeb experiment,uniform,undefined,127,63,63,0,0,63,63,63,63,0,0,0,63,0,1,0,0,,Fri Nov 15 2019 09:01:13 GMT+0100 (Central European Standard Time),807,2875,The main experiment item,yes,1535,,/Users/rijn/Downloads,no,mono,no,18,no,white,no,no,None,null,768,legacy,xpyriment,osweb,1.3.3,space,space,,space,,1220,28888,,1220,,2,legacy,,1573804945264,1024,2,48000,-16,experiment,44,350,TimingShort,0,even,,450516,448465,446916,58,,444038,449282,449282,58,58,450516,28948,,TimingShort,0,85420,64,yes,8,1024,421
0,0,1338,1338,black,47,Default,no,1,,xpyriment,legacy,legacy,0,44,1,350,OSWeb experiment,uniform,undefined,129,64,64,0,0,64,64,64,64,0,0,0,64,0,1,0,0,,Fri Nov 15 2019 09:01:13 GMT+0100 (Central European Standard Time),733,2819,The main experiment item,yes,1165,,/Users/rijn/Downloads,no,mono,no,18,no,white,no,no,None,null,768,legacy,xpyriment,osweb,1.3.3,space,space,,space,,1579,28888,,1579,,2,legacy,,1573804945264,1024,2,48000,-16,experiment,44,350,TimingShort,0,even,,456848,454515,453349,58,,450525,455266,455266,58,58,456848,28948,,TimingShort,0,86999,65,yes,8,1024,421
0,0,1339,1339,black,47,Default,no,1,,xpyriment,legacy,legacy,0,44,1,350,OSWeb experiment,uniform,undefined,131,65,65,0,0,65,65,65,65,0,0,0,65,0,1,0,0,,Fri Nov 15 2019 09:01:13 GMT+0100 (Central European Standard Time),782,3082,The main experiment item,yes,1535,,/Users/rijn/Downloads,no,mono,no,18,no,white,no,no,None,null,768,legacy,xpyriment,osweb,1.3.3,space,space,,space,,1379,28888,,1379,,2,legacy,,1573804945264,1024,2,48000,-16,experiment,44,350,TimingShort,0,even,,463665,461499,459949,58,,456855,462283,462283,58,58,463665,28948,,TimingShort,0,88378,66,yes,8,1024,421
0,0,1336,1336,black,47,Default,no,1,,xpyriment,legacy,legacy,0,44,1,350,OSWeb experiment,uniform,undefined,133,66,66,0,0,66,66,66,66,0,0,0,66,0,1,0,0,,Fri Nov 15 2019 09:01:13 GMT+0100 (Central European Standard Time),825,3009,The main experiment item,yes,1165,,/Users/rijn/Downloads,no,mono,no,18,no,white,no,no,None,null,768,legacy,xpyriment,osweb,1.3.3,space,space,,space,,1160,28888,,1160,,2,legacy,,1573804945264,1024,2,48000,-16,experiment,44,350,TimingShort,0,even,,469866,467866,466683,58,,463671,468701,468701,58,58,469866,28948,,TimingShort,0,89538,67,yes,8,1024,421
0,0,1337,1337,black,47,Default,no,1,,xpyriment,legacy,legacy,0,44,1,350,OSWeb experiment,uniform,undefined,135,67,67,0,0,67,67,67,67,0,0,0,67,0,1,0,0,,Fri Nov 15 2019 09:01:13 GMT+0100 (Central European Standard Time),707,3208,The main experiment item,yes,1675,,/Users/rijn/Downloads,no,mono,no,18,no,white,no,no,None,null,768,legacy,xpyriment,osweb,1.3.3,space,space,,space,,1379,28888,,1379,,2,legacy,,1573804945264,1024,2,48000,-16,experiment,44,350,TimingShort,0,even,,476866,474766,473082,58,,469872,475483,475483,58,58,476866,28948,,TimingShort,0,90917,68,yes,8,1024,421
0,0,1332,1332,black,47,Default,no,1,,xpyriment,legacy,legacy,0,44,1,350,OSWeb experiment,uniform,undefined,137,68,68,0,0,68,68,68,68,0,0,0,68,0,1,0,0,,Fri Nov 15 2019 09:01:13 GMT+0100 (Central European Standard Time),774,2796,The main experiment item,yes,1395,,/Users/rijn/Downloads,no,mono,no,18,no,white,no,no,None,null,768,legacy,xpyriment,osweb,1.3.3,space,space,,space,,963,28888,,963,,2,legacy,,1573804945264,1024,2,48000,-16,experiment,44,350,TimingShort,0,even,,482832,481082,479683,58,,476872,481866,481866,58,58,482832,28948,,TimingShort,0,91880,69,yes,8,1024,421
0,0,1334,1334,black,47,Default,no,1,,xpyriment,legacy,legacy,0,44,1,350,OSWeb experiment,uniform,undefined,139,69,69,0,0,69,69,69,69,0,0,0,69,0,1,0,0,,Fri Nov 15 2019 09:01:13 GMT+0100 (Central European Standard Time),746,2799,The main experiment item,yes,1395,,/Users/rijn/Downloads,no,mono,no,18,no,white,no,no,None,null,768,legacy,xpyriment,osweb,1.3.3,space,space,,space,,1503,28888,,1503,,2,legacy,,1573804945264,1024,2,48000,-16,experiment,44,350,TimingShort,0,even,,489316,487049,485649,58,,482839,487799,487799,58,58,489316,28948,,TimingShort,0,93383,70,yes,8,1024,421
0,0,1334,1334,black,47,Default,no,1,,xpyriment,legacy,legacy,0,44,1,350,OSWeb experiment,uniform,undefined,141,70,70,0,0,70,70,70,70,0,0,0,70,0,1,0,0,,Fri Nov 15 2019 09:01:13 GMT+0100 (Central European Standard Time),788,2949,The main experiment item,yes,1395,,/Users/rijn/Downloads,no,mono,no,18,no,white,no,no,None,null,768,legacy,xpyriment,osweb,1.3.3,space,space,,space,,1362,28888,,1362,,2,legacy,,1573804945264,1024,2,48000,-16,experiment,44,350,TimingShort,0,even,,495849,493682,492283,58,,489322,494483,494483,58,58,495849,28948,,TimingShort,0,94745,71,yes,8,1024,421
0,0,1335,1335,black,47,Default,no,1,,xpyriment,legacy,legacy,0,44,1,350,OSWeb experiment,uniform,undefined,143,71,71,0,0,71,71,71,71,0,0,0,71,0,1,0,0,,Fri Nov 15 2019 09:01:13 GMT+0100 (Central European Standard Time),871,3016,The main experiment item,yes,1395,,/Users/rijn/Downloads,no,mono,no,18,no,white,no,no,None,null,768,legacy,xpyriment,osweb,1.3.3,space,space,,space,,1342,28888,,1342,,2,legacy,,1573804945264,1024,2,48000,-16,experiment,44,350,TimingShort,0,even,,502516,500283,498883,58,,495857,501167,501167,58,58,502516,28948,,TimingShort,0,96087,72,yes,8,1024,421
0,0,1334,1334,black,47,Default,no,1,,xpyriment,legacy,legacy,0,44,1,350,OSWeb experiment,uniform,undefined,145,72,72,0,0,72,72,72,72,0,0,0,72,0,1,0,0,,Fri Nov 15 2019 09:01:13 GMT+0100 (Central European Standard Time),775,2910,The main experiment item,yes,1395,,/Users/rijn/Downloads,no,mono,no,18,no,white,no,no,None,null,768,legacy,xpyriment,osweb,1.3.3,space,space,,space,,1275,28888,,1275,,2,legacy,,1573804945264,1024,2,48000,-16,experiment,44,350,TimingShort,0,even,,508916,506850,505451,58,,502523,507634,507634,58,58,508916,28948,,TimingShort,0,97362,73,yes,8,1024,421
0,0,1336,1336,black,47,Default,no,1,,xpyriment,legacy,legacy,0,44,1,350,OSWeb experiment,uniform,undefined,147,73,73,0,0,73,73,73,73,0,0,0,73,0,1,0,0,,Fri Nov 15 2019 09:01:13 GMT+0100 (Central European Standard Time),827,3229,The main experiment item,yes,1675,,/Users/rijn/Downloads,no,mono,no,18,no,white,no,no,None,null,768,legacy,xpyriment,osweb,1.3.3,space,space,,space,,1530,28888,,1530,,2,legacy,,1573804945264,1024,2,48000,-16,experiment,44,350,TimingShort,0,even,,516216,513849,512166,58,,508922,514684,514684,58,58,516216,28948,,TimingShort,0,98892,74,yes,8,1024,421
0,0,1342,1342,black,47,Default,no,1,,xpyriment,legacy,legacy,0,44,1,350,OSWeb experiment,uniform,undefined,149,74,74,0,0,74,74,74,74,0,0,0,74,0,1,0,0,,Fri Nov 15 2019 09:01:13 GMT+0100 (Central European Standard Time),801,2775,The main experiment item,yes,1675,,/Users/rijn/Downloads,no,mono,no,18,no,white,no,no,None,null,768,legacy,xpyriment,osweb,1.3.3,space,space,,space,,1753,28888,,1753,,2,legacy,,1573804945264,1024,2,48000,-16,experiment,44,350,TimingShort,0,even,,523267,520686,519000,58,,516222,521500,521500,58,58,523267,28948,,TimingShort,0,100645,75,yes,8,1024,421
0,0,1348,1348,black,47,Default,no,1,,xpyriment,legacy,legacy,0,44,1,350,OSWeb experiment,uniform,undefined,151,75,75,0,0,75,75,75,75,0,0,0,75,0,1,0,0,,Fri Nov 15 2019 09:01:13 GMT+0100 (Central European Standard Time),779,2885,The main experiment item,yes,1535,,/Users/rijn/Downloads,no,mono,no,18,no,white,no,no,None,null,768,legacy,xpyriment,osweb,1.3.3,space,space,,space,,1809,28888,,1809,,2,legacy,,1573804945264,1024,2,48000,-16,experiment,44,350,TimingShort,0,even,,530316,527716,526167,58,,523273,528500,528500,58,58,530316,28948,,TimingShort,0,102454,76,yes,8,1024,421
0,0,1353,1353,black,47,Default,no,1,,xpyriment,legacy,legacy,0,44,1,350,OSWeb experiment,uniform,undefined,153,76,76,0,0,76,76,76,76,0,0,0,76,0,1,0,0,,Fri Nov 15 2019 09:01:13 GMT+0100 (Central European Standard Time),743,2855,The main experiment item,yes,1165,,/Users/rijn/Downloads,no,mono,no,18,no,white,no,no,None,null,768,legacy,xpyriment,osweb,1.3.3,space,space,,space,,1728,28888,,1728,,2,legacy,,1573804945264,1024,2,48000,-16,experiment,44,350,TimingShort,0,even,,536850,534367,533184,58,,530322,535117,535117,58,58,536850,28948,,TimingShort,0,104182,77,yes,8,1024,421
0,0,1359,1359,black,47,Default,no,1,,xpyriment,legacy,legacy,0,44,1,350,OSWeb experiment,uniform,undefined,155,77,77,0,0,77,77,77,77,0,0,0,77,0,1,0,0,,Fri Nov 15 2019 09:01:13 GMT+0100 (Central European Standard Time),723,3091,The main experiment item,yes,1395,,/Users/rijn/Downloads,no,mono,no,18,no,white,no,no,None,null,768,legacy,xpyriment,osweb,1.3.3,space,space,,space,,1786,28888,,1786,,2,legacy,,1573804945264,1024,2,48000,-16,experiment,44,350,TimingShort,0,even,,543882,541350,539951,58,,536856,542083,542083,58,58,543882,28948,,TimingShort,0,105968,78,yes,8,1024,421
0,0,1358,1358,black,47,Default,no,1,,xpyriment,legacy,legacy,0,44,1,350,OSWeb experiment,uniform,undefined,157,78,78,0,0,78,78,78,78,0,0,0,78,0,1,0,0,,Fri Nov 15 2019 09:01:13 GMT+0100 (Central European Standard Time),874,3225,The main experiment item,yes,1675,,/Users/rijn/Downloads,no,mono,no,18,no,white,no,no,None,null,768,legacy,xpyriment,osweb,1.3.3,space,space,,space,,1330,28888,,1330,,2,legacy,,1573804945264,1024,2,48000,-16,experiment,44,350,TimingShort,0,even,,551016,548800,547116,58,,543888,549683,549683,58,58,551016,28948,,TimingShort,0,107298,79,yes,8,1024,421
0,0,1352,1352,black,47,Default,no,1,,xpyriment,legacy,legacy,0,44,1,350,OSWeb experiment,uniform,undefined,159,79,79,0,0,79,79,79,79,0,0,0,79,0,1,0,0,,Fri Nov 15 2019 09:01:13 GMT+0100 (Central European Standard Time),843,2970,The main experiment item,yes,1165,,/Users/rijn/Downloads,no,mono,no,18,no,white,no,no,None,null,768,legacy,xpyriment,osweb,1.3.3,space,space,,space,,853,28888,,853,,2,legacy,,1573804945264,1024,2,48000,-16,experiment,44,350,TimingShort,0,even,,556884,555166,554000,58,,551023,556016,556016,58,58,556884,28948,,TimingShort,0,108151,80,yes,8,1024,421
0,0,1348,1348,black,47,Default,no,2,,xpyriment,legacy,legacy,0,44,1,350,OSWeb experiment,uniform,undefined,161,80,80,0,0,80,80,80,80,0,0,0,80,0,1,0,0,,Fri Nov 15 2019 09:01:13 GMT+0100 (Central European Standard Time),888,3114,The main experiment item,yes,1165,,/Users/rijn/Downloads,no,mono,no,18,no,white,no,no,None,null,768,legacy,xpyriment,osweb,1.3.3,space,space,space,space,space,1063,28888,10059,1063,43174,2,legacy,,1573804945264,1024,2,48000,-16,experiment,44,350,TimingShort,0,even,,616401,614434,613267,58,600066,610137,615334,615334,58,58,616401,610133,556887,TimingShort,0,109214,81,yes,16,1024,421
0,0,1350,1350,black,47,Default,no,2,,xpyriment,legacy,legacy,0,44,1,350,OSWeb experiment,uniform,undefined,163,81,81,0,0,81,81,81,81,0,0,0,81,0,1,0,0,,Fri Nov 15 2019 09:01:13 GMT+0100 (Central European Standard Time),858,3012,The main experiment item,yes,1675,,/Users/rijn/Downloads,no,mono,no,18,no,white,no,no,None,null,768,legacy,xpyriment,osweb,1.3.3,space,space,space,space,space,1500,28888,10059,1500,43174,2,legacy,,1573804945264,1024,2,48000,-16,experiment,44,350,TimingShort,0,even,,623500,621116,619434,58,600066,616408,621985,621985,58,58,623500,610133,556887,TimingShort,0,110714,82,yes,6,1024,421
0,0,1355,1355,black,47,Default,no,2,,xpyriment,legacy,legacy,0,44,1,350,OSWeb experiment,uniform,undefined,165,82,82,0,0,82,82,82,82,0,0,0,82,0,1,0,0,,Fri Nov 15 2019 09:01:13 GMT+0100 (Central European Standard Time),840,2873,The main experiment item,yes,1675,,/Users/rijn/Downloads,no,mono,no,18,no,white,no,no,None,null,768,legacy,xpyriment,osweb,1.3.3,space,space,space,space,space,1742,28888,10059,1742,43174,2,legacy,,1573804945264,1024,2,48000,-16,experiment,44,350,TimingShort,0,even,,630667,628067,626384,58,600066,623506,628919,628919,58,58,630667,610133,556887,TimingShort,0,112456,83,yes,6,1024,421
0,0,1359,1359,black,47,Default,no,2,,xpyriment,legacy,legacy,0,44,1,350,OSWeb experiment,uniform,undefined,167,83,83,0,0,83,83,83,83,0,0,0,83,0,1,0,0,,Fri Nov 15 2019 09:01:13 GMT+0100 (Central European Standard Time),762,2827,The main experiment item,yes,1675,,/Users/rijn/Downloads,no,mono,no,18,no,white,no,no,None,null,768,legacy,xpyriment,osweb,1.3.3,space,space,space,space,space,1662,28888,10059,1662,43174,2,legacy,,1573804945264,1024,2,48000,-16,experiment,44,350,TimingShort,0,even,,637617,635184,633502,58,600066,630673,635951,635951,58,58,637617,610133,556887,TimingShort,0,114118,84,yes,6,1024,421
0,0,1354,1354,black,47,Default,no,2,,xpyriment,legacy,legacy,0,44,1,350,OSWeb experiment,uniform,undefined,169,84,84,0,0,84,84,84,84,0,0,0,84,0,1,0,0,,Fri Nov 15 2019 09:01:13 GMT+0100 (Central European Standard Time),742,3076,The main experiment item,yes,1265,,/Users/rijn/Downloads,no,mono,no,18,no,white,no,no,None,null,768,legacy,xpyriment,osweb,1.3.3,space,space,space,space,space,967,28888,10059,967,43174,2,legacy,,1573804945264,1024,2,48000,-16,experiment,44,350,TimingShort,0,even,,643717,641984,640702,58,600066,637623,642734,642734,58,58,643717,610133,556887,TimingShort,0,115085,85,yes,6,1024,421
0,0,1357,1357,black,47,Default,no,2,,xpyriment,legacy,legacy,0,44,1,350,OSWeb experiment,uniform,undefined,171,85,85,0,0,85,85,85,85,0,0,0,85,0,1,0,0,,Fri Nov 15 2019 09:01:13 GMT+0100 (Central European Standard Time),707,2781,The main experiment item,yes,1535,,/Users/rijn/Downloads,no,mono,no,18,no,white,no,no,None,null,768,legacy,xpyriment,osweb,1.3.3,space,space,space,space,space,1621,28888,10059,1621,43174,2,legacy,,1573804945264,1024,2,48000,-16,experiment,44,350,TimingShort,0,even,,650417,648067,646518,58,600066,643724,648784,648784,58,58,650417,610133,556887,TimingShort,0,116706,86,yes,6,1024,421
0,0,1357,1357,black,47,Default,no,2,,xpyriment,legacy,legacy,0,44,1,350,OSWeb experiment,uniform,undefined,173,86,86,0,0,86,86,86,86,0,0,0,86,0,1,0,0,,Fri Nov 15 2019 09:01:13 GMT+0100 (Central European Standard Time),879,3017,The main experiment item,yes,1675,,/Users/rijn/Downloads,no,mono,no,18,no,white,no,no,None,null,768,legacy,xpyriment,osweb,1.3.3,space,space,space,space,space,1378,28888,10059,1378,43174,2,legacy,,1573804945264,1024,2,48000,-16,experiment,44,350,TimingShort,0,even,,657401,655134,653451,58,600066,650423,656019,656019,58,58,657401,610133,556887,TimingShort,0,118084,87,yes,6,1024,421
0,0,1361,1361,black,47,Default,no,2,,xpyriment,legacy,legacy,0,44,1,350,OSWeb experiment,uniform,undefined,175,87,87,0,0,87,87,87,87,0,0,0,87,0,1,0,0,,Fri Nov 15 2019 09:01:13 GMT+0100 (Central European Standard Time),826,2759,The main experiment item,yes,1395,,/Users/rijn/Downloads,no,mono,no,18,no,white,no,no,None,null,768,legacy,xpyriment,osweb,1.3.3,space,space,space,space,space,1691,28888,10059,1691,43174,2,legacy,,1573804945264,1024,2,48000,-16,experiment,44,350,TimingShort,0,even,,664118,661584,660184,58,600066,657408,662418,662418,58,58,664118,610133,556887,TimingShort,0,119775,88,yes,6,1024,421
0,0,1360,1360,black,47,Default,no,2,,xpyriment,legacy,legacy,0,44,1,350,OSWeb experiment,uniform,undefined,177,88,88,0,0,88,88,88,88,0,0,0,88,0,1,0,0,,Fri Nov 15 2019 09:01:13 GMT+0100 (Central European Standard Time),741,3082,The main experiment item,yes,1265,,/Users/rijn/Downloads,no,mono,no,18,no,white,no,no,None,null,768,legacy,xpyriment,osweb,1.3.3,space,space,space,space,space,1274,28888,10059,1274,43174,2,legacy,,1573804945264,1024,2,48000,-16,experiment,44,350,TimingShort,0,even,,670518,668485,667218,58,600066,664124,669235,669235,58,58,670518,610133,556887,TimingShort,0,121049,89,yes,6,1024,421
0,0,1363,1363,black,47,Default,no,2,,xpyriment,legacy,legacy,0,44,1,350,OSWeb experiment,uniform,undefined,179,89,89,0,0,89,89,89,89,0,0,0,89,0,1,0,0,,Fri Nov 15 2019 09:01:13 GMT+0100 (Central European Standard Time),740,2758,The main experiment item,yes,1675,,/Users/rijn/Downloads,no,mono,no,18,no,white,no,no,None,null,768,legacy,xpyriment,osweb,1.3.3,space,space,space,space,space,1655,28888,10059,1655,43174,2,legacy,,1573804945264,1024,2,48000,-16,experiment,44,350,TimingShort,0,even,,677384,674967,673286,58,600066,670524,675718,675718,58,58,677384,610133,556887,TimingShort,0,122704,90,yes,6,1024,421
0,0,1361,1361,black,47,Default,no,2,,xpyriment,legacy,legacy,0,44,1,350,OSWeb experiment,uniform,undefined,181,90,90,0,0,90,90,90,90,0,0,0,90,0,1,0,0,,Fri Nov 15 2019 09:01:13 GMT+0100 (Central European Standard Time),719,2804,The main experiment item,yes,1535,,/Users/rijn/Downloads,no,mono,no,18,no,white,no,no,None,null,768,legacy,xpyriment,osweb,1.3.3,space,space,space,space,space,1120,28888,10059,1120,43174,2,legacy,,1573804945264,1024,2,48000,-16,experiment,44,350,TimingShort,0,even,,683618,681751,680203,58,600066,677390,682485,682485,58,58,683618,610133,556887,TimingShort,0,123824,91,yes,6,1024,421
0,0,1355,1355,black,47,Default,no,2,,xpyriment,legacy,legacy,0,44,1,350,OSWeb experiment,uniform,undefined,183,91,91,0,0,91,91,91,91,0,0,0,91,0,1,0,0,,Fri Nov 15 2019 09:01:13 GMT+0100 (Central European Standard Time),803,2947,The main experiment item,yes,1165,,/Users/rijn/Downloads,no,mono,no,18,no,white,no,no,None,null,768,legacy,xpyriment,osweb,1.3.3,space,space,space,space,space,845,28888,10059,845,43174,2,legacy,,1573804945264,1024,2,48000,-16,experiment,44,350,TimingShort,0,even,,689418,687752,686585,58,600066,683625,688568,688568,58,58,689418,610133,556887,TimingShort,0,124669,92,yes,16,1024,421
0,0,1358,1358,black,47,Default,no,2,,xpyriment,legacy,legacy,0,44,1,350,OSWeb experiment,uniform,undefined,185,92,92,0,0,92,92,92,92,0,0,0,92,0,1,0,0,,Fri Nov 15 2019 09:01:13 GMT+0100 (Central European Standard Time),704,2773,The main experiment item,yes,1395,,/Users/rijn/Downloads,no,mono,no,18,no,white,no,no,None,null,768,legacy,xpyriment,osweb,1.3.3,space,space,space,space,space,1663,28888,10059,1663,43174,2,legacy,,1573804945264,1024,2,48000,-16,experiment,44,350,TimingShort,0,even,,695985,693601,692202,58,600066,689421,694318,694318,58,58,695985,610133,556887,TimingShort,0,126332,93,yes,6,1024,421
0,0,1364,1364,black,47,Default,no,2,,xpyriment,legacy,legacy,0,44,1,350,OSWeb experiment,uniform,undefined,187,93,93,0,0,93,93,93,93,0,0,0,93,0,1,0,0,,Fri Nov 15 2019 09:01:13 GMT+0100 (Central European Standard Time),822,3107,The main experiment item,yes,1165,,/Users/rijn/Downloads,no,mono,no,18,no,white,no,no,None,null,768,legacy,xpyriment,osweb,1.3.3,space,space,space,space,space,1911,28888,10059,1911,43174,2,legacy,,1573804945264,1024,2,48000,-16,experiment,44,350,TimingShort,0,even,,703018,700269,699101,58,600066,695992,701102,701102,58,58,703018,610133,556887,TimingShort,0,128243,94,yes,16,1024,421
0,0,1365,1365,black,47,Default,no,2,,xpyriment,legacy,legacy,0,44,1,350,OSWeb experiment,uniform,undefined,189,94,94,0,0,94,94,94,94,0,0,0,94,0,1,0,0,,Fri Nov 15 2019 09:01:13 GMT+0100 (Central European Standard Time),822,3069,The main experiment item,yes,1165,,/Users/rijn/Downloads,no,mono,no,18,no,white,no,no,None,null,768,legacy,xpyriment,osweb,1.3.3,space,space,space,space,space,1398,28888,10059,1398,43174,2,legacy,,1573804945264,1024,2,48000,-16,experiment,44,350,TimingShort,0,even,,709502,707268,706101,58,600066,703023,708103,708103,58,58,709502,610133,556887,TimingShort,0,129641,95,yes,16,1024,421
0,0,1364,1364,black,47,Default,no,2,,xpyriment,legacy,legacy,0,44,1,350,OSWeb experiment,uniform,undefined,191,95,95,0,0,95,95,95,95,0,0,0,95,0,1,0,0,,Fri Nov 15 2019 09:01:13 GMT+0100 (Central European Standard Time),835,2990,The main experiment item,yes,1675,,/Users/rijn/Downloads,no,mono,no,18,no,white,no,no,None,null,768,legacy,xpyriment,osweb,1.3.3,space,space,space,space,space,1321,28888,10059,1321,43174,2,legacy,,1573804945264,1024,2,48000,-16,experiment,44,350,TimingShort,0,even,,716368,714185,712502,58,600066,709507,715036,715036,58,58,716368,610133,556887,TimingShort,0,130962,96,yes,6,1024,421
0,0,1372,1372,black,47,Default,no,2,,xpyriment,legacy,legacy,0,44,1,350,OSWeb experiment,uniform,undefined,193,96,96,0,0,96,96,96,96,0,0,0,96,0,1,0,0,,Fri Nov 15 2019 09:01:13 GMT+0100 (Central European Standard Time),825,2989,The main experiment item,yes,1535,,/Users/rijn/Downloads,no,mono,no,18,no,white,no,no,None,null,768,legacy,xpyriment,osweb,1.3.3,space,space,space,space,space,2085,28888,10059,2085,43174,2,legacy,,1573804945264,1024,2,48000,-16,experiment,44,350,TimingShort,0,even,,723852,720918,719368,58,600066,716374,721752,721752,58,58,723852,610133,556887,TimingShort,0,133047,97,yes,6,1024,421
0,0,1368,1368,black,47,Default,no,2,,xpyriment,legacy,legacy,0,44,1,350,OSWeb experiment,uniform,undefined,195,97,97,0,0,97,97,97,97,0,0,0,97,0,1,0,0,,Fri Nov 15 2019 09:01:13 GMT+0100 (Central European Standard Time),751,2918,The main experiment item,yes,1265,,/Users/rijn/Downloads,no,mono,no,18,no,white,no,no,None,null,768,legacy,xpyriment,osweb,1.3.3,space,space,space,space,space,1042,28888,10059,1042,43174,2,legacy,,1573804945264,1024,2,48000,-16,experiment,44,350,TimingShort,0,even,,729884,728068,726786,58,600066,723859,728835,728835,58,58,729884,610133,556887,TimingShort,0,134089,98,yes,6,1024,421
0,0,1368,1368,black,47,Default,no,2,,xpyriment,legacy,legacy,0,44,1,350,OSWeb experiment,uniform,undefined,197,98,98,0,0,98,98,98,98,0,0,0,98,0,1,0,0,,Fri Nov 15 2019 09:01:13 GMT+0100 (Central European Standard Time),726,3220,The main experiment item,yes,1165,,/Users/rijn/Downloads,no,mono,no,18,no,white,no,no,None,null,768,legacy,xpyriment,osweb,1.3.3,space,space,space,space,space,1379,28888,10059,1379,43174,2,legacy,,1573804945264,1024,2,48000,-16,experiment,44,350,TimingShort,0,even,,736401,734286,733118,58,600066,729890,735018,735018,58,58,736401,610133,556887,TimingShort,0,135468,99,yes,16,1024,421
0,0,1366,1366,black,47,Default,no,2,,xpyriment,legacy,legacy,0,44,1,350,OSWeb experiment,uniform,undefined,199,99,99,0,0,99,99,99,99,0,0,0,99,0,1,0,0,,Fri Nov 15 2019 09:01:13 GMT+0100 (Central European Standard Time),741,2797,The main experiment item,yes,1165,,/Users/rijn/Downloads,no,mono,no,18,no,white,no,no,None,null,768,legacy,xpyriment,osweb,1.3.3,space,space,space,space,space,1134,28888,10059,1134,43174,2,legacy,,1573804945264,1024,2,48000,-16,experiment,44,350,TimingShort,0,even,,742284,740386,739219,58,600066,736408,741135,741135,58,58,742284,610133,556887,TimingShort,0,136602,100,yes,16,1024,421
0,0,1369,1369,black,47,Default,no,2,,xpyriment,legacy,legacy,0,44,1,350,OSWeb experiment,uniform,undefined,201,100,100,0,0,100,100,100,100,0,0,0,100,0,1,0,0,,Fri Nov 15 2019 09:01:13 GMT+0100 (Central European Standard Time),729,3104,The main experiment item,yes,1675,,/Users/rijn/Downloads,no,mono,no,18,no,white,no,no,None,null,768,legacy,xpyriment,osweb,1.3.3,space,space,space,space,space,1666,28888,10059,1666,43174,2,legacy,,1573804945264,1024,2,48000,-16,experiment,44,350,TimingShort,0,even,,749485,747085,745402,58,600066,742290,747819,747819,58,58,749485,610133,556887,TimingShort,0,138268,101,yes,6,1024,421
0,0,1370,1370,black,47,Default,no,2,,xpyriment,legacy,legacy,0,44,1,350,OSWeb experiment,uniform,undefined,203,101,101,0,0,101,101,101,101,0,0,0,101,0,1,0,0,,Fri Nov 15 2019 09:01:13 GMT+0100 (Central European Standard Time),789,2982,The main experiment item,yes,1395,,/Users/rijn/Downloads,no,mono,no,18,no,white,no,no,None,null,768,legacy,xpyriment,osweb,1.3.3,space,space,space,space,space,1455,28888,10059,1455,43174,2,legacy,,1573804945264,1024,2,48000,-16,experiment,44,350,TimingShort,0,even,,756152,753885,752486,58,600066,749492,754686,754686,58,58,756152,610133,556887,TimingShort,0,139723,102,yes,6,1024,421
0,0,1408,1408,black,47,Default,no,2,,xpyriment,legacy,legacy,0,44,1,350,OSWeb experiment,uniform,undefined,205,102,102,0,0,102,102,102,102,0,0,0,102,0,1,0,0,,Fri Nov 15 2019 09:01:13 GMT+0100 (Central European Standard Time),898,3118,The main experiment item,yes,1265,,/Users/rijn/Downloads,no,mono,no,18,no,white,no,no,None,null,768,legacy,xpyriment,osweb,1.3.3,space,space,space,space,space,5344,28888,10059,5344,43174,2,legacy,,1573804945264,1024,2,48000,-16,experiment,44,350,TimingShort,0,even,,766802,760552,759286,58,600066,756157,761453,761453,58,58,766802,610133,556887,TimingShort,0,145067,103,yes,6,1024,421
0,0,1408,1408,black,47,Default,no,2,,xpyriment,legacy,legacy,0,44,1,350,OSWeb experiment,uniform,undefined,207,103,103,0,0,103,103,103,103,0,0,0,103,0,1,0,0,,Fri Nov 15 2019 09:01:13 GMT+0100 (Central European Standard Time),819,3158,The main experiment item,yes,1165,,/Users/rijn/Downloads,no,mono,no,18,no,white,no,no,None,null,768,legacy,xpyriment,osweb,1.3.3,space,space,space,space,space,1339,28888,10059,1339,43174,2,legacy,,1573804945264,1024,2,48000,-16,experiment,44,350,TimingShort,0,even,,773335,771156,769970,58,600066,766808,771986,771986,58,58,773335,610133,556887,TimingShort,0,146406,104,yes,16,1024,421
0,0,1409,1409,black,47,Default,no,2,,xpyriment,legacy,legacy,0,44,1,350,OSWeb experiment,uniform,undefined,209,104,104,0,0,104,104,104,104,0,0,0,104,0,1,0,0,,Fri Nov 15 2019 09:01:13 GMT+0100 (Central European Standard Time),899,3173,The main experiment item,yes,1165,,/Users/rijn/Downloads,no,mono,no,18,no,white,no,no,None,null,768,legacy,xpyriment,osweb,1.3.3,space,space,space,space,space,1522,28888,10059,1522,43174,2,legacy,,1573804945264,1024,2,48000,-16,experiment,44,350,TimingShort,0,even,,780135,777686,776519,58,600066,773341,778603,778603,58,58,780135,610133,556887,TimingShort,0,147928,105,yes,16,1024,421
0,0,1408,1408,black,47,Default,no,2,,xpyriment,legacy,legacy,0,44,1,350,OSWeb experiment,uniform,undefined,211,105,105,0,0,105,105,105,105,0,0,0,105,0,1,0,0,,Fri Nov 15 2019 09:01:13 GMT+0100 (Central European Standard Time),726,3087,The main experiment item,yes,1165,,/Users/rijn/Downloads,no,mono,no,18,no,white,no,no,None,null,768,legacy,xpyriment,osweb,1.3.3,space,space,space,space,space,1285,28888,10059,1285,43174,2,legacy,,1573804945264,1024,2,48000,-16,experiment,44,350,TimingShort,0,even,,786452,784419,783236,58,600066,780142,785152,785152,58,58,786452,610133,556887,TimingShort,0,149213,106,yes,16,1024,421
0,0,1410,1410,black,47,Default,no,2,,xpyriment,legacy,legacy,0,44,1,350,OSWeb experiment,uniform,undefined,213,106,106,0,0,106,106,106,106,0,0,0,106,0,1,0,0,,Fri Nov 15 2019 09:01:13 GMT+0100 (Central European Standard Time),822,2786,The main experiment item,yes,1165,,/Users/rijn/Downloads,no,mono,no,18,no,white,no,no,None,null,768,legacy,xpyriment,osweb,1.3.3,space,space,space,space,space,1623,28888,10059,1623,43174,2,legacy,,1573804945264,1024,2,48000,-16,experiment,44,350,TimingShort,0,even,,792902,790436,789254,58,600066,786458,791270,791270,58,58,792902,610133,556887,TimingShort,0,150836,107,yes,16,1024,421
0,0,1412,1412,black,47,Default,no,2,,xpyriment,legacy,legacy,0,44,1,350,OSWeb experiment,uniform,undefined,215,107,107,0,0,107,107,107,107,0,0,0,107,0,1,0,0,,Fri Nov 15 2019 09:01:13 GMT+0100 (Central European Standard Time),891,3229,The main experiment item,yes,1165,,/Users/rijn/Downloads,no,mono,no,18,no,white,no,no,None,null,768,legacy,xpyriment,osweb,1.3.3,space,space,space,space,space,1625,28888,10059,1625,43174,2,legacy,,1573804945264,1024,2,48000,-16,experiment,44,350,TimingShort,0,even,,799869,797335,796157,58,600066,792907,798236,798236,58,58,799869,610133,556887,TimingShort,0,152461,108,yes,16,1024,421
0,0,1411,1411,black,47,Default,no,2,,xpyriment,legacy,legacy,0,44,1,350,OSWeb experiment,uniform,undefined,217,108,108,0,0,108,108,108,108,0,0,0,108,0,1,0,0,,Fri Nov 15 2019 09:01:13 GMT+0100 (Central European Standard Time),822,3228,The main experiment item,yes,1165,,/Users/rijn/Downloads,no,mono,no,18,no,white,no,no,None,null,768,legacy,xpyriment,osweb,1.3.3,space,space,space,space,space,1301,28888,10059,1301,43174,2,legacy,,1573804945264,1024,2,48000,-16,experiment,44,350,TimingShort,0,even,,806435,804285,803119,58,600066,799875,805120,805120,58,58,806435,610133,556887,TimingShort,0,153762,109,yes,16,1024,421
0,0,1413,1413,black,47,Default,no,2,,xpyriment,legacy,legacy,0,44,1,350,OSWeb experiment,uniform,undefined,219,109,109,0,0,109,109,109,109,0,0,0,109,0,1,0,0,,Fri Nov 15 2019 09:01:13 GMT+0100 (Central European Standard Time),716,3018,The main experiment item,yes,1265,,/Users/rijn/Downloads,no,mono,no,18,no,white,no,no,None,null,768,legacy,xpyriment,osweb,1.3.3,space,space,space,space,space,1704,28888,10059,1704,43174,2,legacy,,1573804945264,1024,2,48000,-16,experiment,44,350,TimingShort,0,even,,813169,810735,809469,58,600066,806442,811453,811453,58,58,813169,610133,556887,TimingShort,0,155466,110,yes,6,1024,421
0,0,1415,1415,black,47,Default,no,2,,xpyriment,legacy,legacy,0,44,1,350,OSWeb experiment,uniform,undefined,221,110,110,0,0,110,110,110,110,0,0,0,110,0,1,0,0,,Fri Nov 15 2019 09:01:13 GMT+0100 (Central European Standard Time),770,3102,The main experiment item,yes,1535,,/Users/rijn/Downloads,no,mono,no,18,no,white,no,no,None,null,768,legacy,xpyriment,osweb,1.3.3,space,space,space,space,space,1610,28888,10059,1610,43174,2,legacy,,1573804945264,1024,2,48000,-16,experiment,44,350,TimingShort,0,even,,820236,817836,816286,58,600066,813175,818619,818619,58,58,820236,610133,556887,TimingShort,0,157076,111,yes,6,1024,421
0,0,1418,1418,black,47,Default,no,2,,xpyriment,legacy,legacy,0,44,1,350,OSWeb experiment,uniform,undefined,223,111,111,0,0,111,111,111,111,0,0,0,111,0,1,0,0,,Fri Nov 15 2019 09:01:13 GMT+0100 (Central European Standard Time),744,3154,The main experiment item,yes,1265,,/Users/rijn/Downloads,no,mono,no,18,no,white,no,no,None,null,768,legacy,xpyriment,osweb,1.3.3,space,space,space,space,space,1705,28888,10059,1705,43174,2,legacy,,1573804945264,1024,2,48000,-16,experiment,44,350,TimingShort,0,even,,827136,824670,823403,58,600066,820242,825420,825420,58,58,827136,610133,556887,TimingShort,0,158781,112,yes,6,1024,421
0,0,1424,1424,black,47,Default,no,2,,xpyriment,legacy,legacy,0,44,1,350,OSWeb experiment,uniform,undefined,225,112,112,0,0,112,112,112,112,0,0,0,112,0,1,0,0,,Fri Nov 15 2019 09:01:13 GMT+0100 (Central European Standard Time),733,3129,The main experiment item,yes,1675,,/Users/rijn/Downloads,no,mono,no,18,no,white,no,no,None,null,768,legacy,xpyriment,osweb,1.3.3,space,space,space,space,space,2093,28888,10059,2093,43174,2,legacy,,1573804945264,1024,2,48000,-16,experiment,44,350,TimingShort,0,even,,834819,831970,830286,58,600066,827142,832720,832720,58,58,834819,610133,556887,TimingShort,0,160874,113,yes,6,1024,421
0,0,1425,1425,black,47,Default,no,2,,xpyriment,legacy,legacy,0,44,1,350,OSWeb experiment,uniform,undefined,227,113,113,0,0,113,113,113,113,0,0,0,113,0,1,0,0,,Fri Nov 15 2019 09:01:13 GMT+0100 (Central European Standard Time),730,2904,The main experiment item,yes,1165,,/Users/rijn/Downloads,no,mono,no,18,no,white,no,no,None,null,768,legacy,xpyriment,osweb,1.3.3,space,space,space,space,space,1600,28888,10059,1600,43174,2,legacy,,1573804945264,1024,2,48000,-16,experiment,44,350,TimingShort,0,even,,841253,838903,837736,58,600066,834827,839636,839636,58,58,841253,610133,556887,TimingShort,0,162474,114,yes,16,1024,421
0,0,1424,1424,black,47,Default,no,2,,xpyriment,legacy,legacy,0,44,1,350,OSWeb experiment,uniform,undefined,229,114,114,0,0,114,114,114,114,0,0,0,114,0,1,0,0,,Fri Nov 15 2019 09:01:13 GMT+0100 (Central European Standard Time),772,2840,The main experiment item,yes,1165,,/Users/rijn/Downloads,no,mono,no,18,no,white,no,no,None,null,768,legacy,xpyriment,osweb,1.3.3,space,space,space,space,space,1239,28888,10059,1239,43174,2,legacy,,1573804945264,1024,2,48000,-16,experiment,44,350,TimingShort,0,even,,847319,845286,844103,58,600066,841258,846070,846070,58,58,847319,610133,556887,TimingShort,0,163713,115,yes,16,1024,421
0,0,1421,1421,black,47,Default,no,2,,xpyriment,legacy,legacy,0,44,1,350,OSWeb experiment,uniform,undefined,231,115,115,0,0,115,115,115,115,0,0,0,115,0,1,0,0,,Fri Nov 15 2019 09:01:13 GMT+0100 (Central European Standard Time),744,3070,The main experiment item,yes,1675,,/Users/rijn/Downloads,no,mono,no,18,no,white,no,no,None,null,768,legacy,xpyriment,osweb,1.3.3,space,space,space,space,space,1160,28888,10059,1160,43174,2,legacy,,1573804945264,1024,2,48000,-16,experiment,44,350,TimingShort,0,even,,854003,852086,850403,58,600066,847326,852837,852837,58,58,854003,610133,556887,TimingShort,0,164873,116,yes,6,1024,421
0,0,1420,1420,black,47,Default,no,2,,xpyriment,legacy,legacy,0,44,1,350,OSWeb experiment,uniform,undefined,233,116,116,0,0,116,116,116,116,0,0,0,116,0,1,0,0,,Fri Nov 15 2019 09:01:13 GMT+0100 (Central European Standard Time),710,3186,The main experiment item,yes,1165,,/Users/rijn/Downloads,no,mono,no,18,no,white,no,no,None,null,768,legacy,xpyriment,osweb,1.3.3,space,space,space,space,space,1317,28888,10059,1317,43174,2,legacy,,1573804945264,1024,2,48000,-16,experiment,44,350,TimingShort,0,even,,860419,858370,857203,58,600066,854009,859087,859087,58,58,860419,610133,556887,TimingShort,0,166190,117,yes,16,1024,421
0,0,1420,1420,black,47,Default,no,2,,xpyriment,legacy,legacy,0,44,1,350,OSWeb experiment,uniform,undefined,235,117,117,0,0,117,117,117,117,0,0,0,117,0,1,0,0,,Fri Nov 15 2019 09:01:13 GMT+0100 (Central European Standard Time),899,2804,The main experiment item,yes,1165,,/Users/rijn/Downloads,no,mono,no,18,no,white,no,no,None,null,768,legacy,xpyriment,osweb,1.3.3,space,space,space,space,space,1349,28888,10059,1349,43174,2,legacy,,1573804945264,1024,2,48000,-16,experiment,44,350,TimingShort,0,even,,866669,864404,863236,58,600066,860422,865320,865320,58,58,866669,610133,556887,TimingShort,0,167539,118,yes,16,1024,421
0,0,1421,1421,black,47,Default,no,2,,xpyriment,legacy,legacy,0,44,1,350,OSWeb experiment,uniform,undefined,237,118,118,0,0,118,118,118,118,0,0,0,118,0,1,0,0,,Fri Nov 15 2019 09:01:13 GMT+0100 (Central European Standard Time),743,3211,The main experiment item,yes,1165,,/Users/rijn/Downloads,no,mono,no,18,no,white,no,no,None,null,768,legacy,xpyriment,osweb,1.3.3,space,space,space,space,space,1584,28888,10059,1584,43174,2,legacy,,1573804945264,1024,2,48000,-16,experiment,44,350,TimingShort,0,even,,873436,871087,869904,58,600066,866675,871837,871837,58,58,873436,610133,556887,TimingShort,0,169123,119,yes,16,1024,421
0,0,1421,1421,black,47,Default,no,2,,xpyriment,legacy,legacy,0,44,1,350,OSWeb experiment,uniform,undefined,239,119,119,0,0,119,119,119,119,0,0,0,119,0,1,0,0,,Fri Nov 15 2019 09:01:13 GMT+0100 (Central European Standard Time),738,2814,The main experiment item,yes,1395,,/Users/rijn/Downloads,no,mono,no,18,no,white,no,no,None,null,768,legacy,xpyriment,osweb,1.3.3,space,space,space,space,space,1440,28888,10059,1440,43174,2,legacy,,1573804945264,1024,2,48000,-16,experiment,44,350,TimingShort,0,even,,879869,877670,876270,58,600066,873442,878421,878421,58,58,879869,610133,556887,TimingShort,0,170563,120,yes,6,1024,421
0,0,1422,1422,black,47,Default,no,2,,xpyriment,legacy,legacy,0,44,1,350,OSWeb experiment,uniform,undefined,241,120,120,0,0,120,120,120,120,0,0,0,120,0,1,0,0,,Fri Nov 15 2019 09:01:13 GMT+0100 (Central European Standard Time),798,2920,The main experiment item,yes,1165,,/Users/rijn/Downloads,no,mono,no,18,no,white,no,no,None,null,768,legacy,xpyriment,osweb,1.3.3,space,space,space,space,space,1473,28888,10059,1473,43174,2,legacy,,1573804945264,1024,2,48000,-16,experiment,44,350,TimingShort,0,even,,886269,883987,882804,58,600066,879877,884787,884787,58,58,886269,610133,556887,TimingShort,0,172036,121,yes,16,1024,421
0,0,1422,1422,black,47,Default,no,2,,xpyriment,legacy,legacy,0,44,1,350,OSWeb experiment,uniform,undefined,243,121,121,0,0,121,121,121,121,0,0,0,121,0,1,0,0,,Fri Nov 15 2019 09:01:13 GMT+0100 (Central European Standard Time),845,2886,The main experiment item,yes,1265,,/Users/rijn/Downloads,no,mono,no,18,no,white,no,no,None,null,768,legacy,xpyriment,osweb,1.3.3,space,space,space,space,space,1485,28888,10059,1485,43174,2,legacy,,1573804945264,1024,2,48000,-16,experiment,44,350,TimingShort,0,even,,892786,890437,889170,58,600066,886272,891288,891288,58,58,892786,610133,556887,TimingShort,0,173521,122,yes,6,1024,421
0,0,1418,1418,black,47,Default,no,2,,xpyriment,legacy,legacy,0,44,1,350,OSWeb experiment,uniform,undefined,245,122,122,0,0,122,122,122,122,0,0,0,122,0,1,0,0,,Fri Nov 15 2019 09:01:13 GMT+0100 (Central European Standard Time),757,2775,The main experiment item,yes,1165,,/Users/rijn/Downloads,no,mono,no,18,no,white,no,no,None,null,768,legacy,xpyriment,osweb,1.3.3,space,space,space,space,space,868,28888,10059,868,43174,2,legacy,,1573804945264,1024,2,48000,-16,experiment,44,350,TimingShort,0,even,,898403,896754,895571,58,600066,892792,897521,897521,58,58,898403,610133,556887,TimingShort,0,174389,123,yes,16,1024,421
0,0,1421,1421,black,47,Default,no,2,,xpyriment,legacy,legacy,0,44,1,350,OSWeb experiment,uniform,undefined,247,123,123,0,0,123,123,123,123,0,0,0,123,0,1,0,0,,Fri Nov 15 2019 09:01:13 GMT+0100 (Central European Standard Time),709,3062,The main experiment item,yes,1535,,/Users/rijn/Downloads,no,mono,no,18,no,white,no,no,None,null,768,legacy,xpyriment,osweb,1.3.3,space,space,space,space,space,1811,28888,10059,1811,43174,2,legacy,,1573804945264,1024,2,48000,-16,experiment,44,350,TimingShort,0,even,,905570,903036,901486,58,600066,898409,903754,903754,58,58,905570,610133,556887,TimingShort,0,176200,124,yes,6,1024,421
0,0,1421,1421,black,47,Default,no,2,,xpyriment,legacy,legacy,0,44,1,350,OSWeb experiment,uniform,undefined,249,124,124,0,0,124,124,124,124,0,0,0,124,0,1,0,0,,Fri Nov 15 2019 09:01:13 GMT+0100 (Central European Standard Time),861,2931,The main experiment item,yes,1535,,/Users/rijn/Downloads,no,mono,no,18,no,white,no,no,None,null,768,legacy,xpyriment,osweb,1.3.3,space,space,space,space,space,1436,28888,10059,1436,43174,2,legacy,,1573804945264,1024,2,48000,-16,experiment,44,350,TimingShort,0,even,,912387,910070,908521,58,600066,905577,910936,910937,58,58,912387,610133,556887,TimingShort,0,177636,125,yes,6,1024,421
0,0,1418,1418,black,47,Default,no,2,,xpyriment,legacy,legacy,0,44,1,350,OSWeb experiment,uniform,undefined,251,125,125,0,0,125,125,125,125,0,0,0,125,0,1,0,0,,Fri Nov 15 2019 09:01:13 GMT+0100 (Central European Standard Time),824,2765,The main experiment item,yes,1265,,/Users/rijn/Downloads,no,mono,no,18,no,white,no,no,None,null,768,legacy,xpyriment,osweb,1.3.3,space,space,space,space,space,1038,28888,10059,1038,43174,2,legacy,,1573804945264,1024,2,48000,-16,experiment,44,350,TimingShort,0,even,,918320,916437,915170,58,600066,912392,917271,917271,58,58,918320,610133,556887,TimingShort,0,178674,126,yes,6,1024,421
0,0,1416,1416,black,47,Default,no,2,,xpyriment,legacy,legacy,0,44,1,350,OSWeb experiment,uniform,undefined,253,126,126,0,0,126,126,126,126,0,0,0,126,0,1,0,0,,Fri Nov 15 2019 09:01:13 GMT+0100 (Central European Standard Time),846,2840,The main experiment item,yes,1265,,/Users/rijn/Downloads,no,mono,no,18,no,white,no,no,None,null,768,legacy,xpyriment,osweb,1.3.3,space,space,space,space,space,1204,28888,10059,1204,43174,2,legacy,,1573804945264,1024,2,48000,-16,experiment,44,350,TimingShort,0,even,,924520,922453,921171,58,600066,918327,923304,923305,58,58,924520,610133,556887,TimingShort,0,179878,127,yes,6,1024,421
0,0,1420,1420,black,47,Default,no,2,,xpyriment,legacy,legacy,0,44,1,350,OSWeb experiment,uniform,undefined,255,127,127,0,0,127,127,127,127,0,0,0,127,0,1,0,0,,Fri Nov 15 2019 09:01:13 GMT+0100 (Central European Standard Time),866,3042,The main experiment item,yes,1675,,/Users/rijn/Downloads,no,mono,no,18,no,white,no,no,None,null,768,legacy,xpyriment,osweb,1.3.3,space,space,space,space,space,1827,28888,10059,1827,43174,2,legacy,,1573804945264,1024,2,48000,-16,experiment,44,350,TimingShort,0,even,,931970,929254,927573,58,600066,924526,930137,930137,58,58,931970,610133,556887,TimingShort,0,181705,128,yes,6,1024,421
0,0,1417,1417,black,47,Default,no,2,,xpyriment,legacy,legacy,0,44,1,350,OSWeb experiment,uniform,undefined,257,128,128,0,0,128,128,128,128,0,0,0,128,0,1,0,0,,Fri Nov 15 2019 09:01:13 GMT+0100 (Central European Standard Time),844,3202,The main experiment item,yes,1165,,/Users/rijn/Downloads,no,mono,no,18,no,white,no,no,None,null,768,legacy,xpyriment,osweb,1.3.3,space,space,space,space,space,1120,28888,10059,1120,43174,2,legacy,,1573804945264,1024,2,48000,-16,experiment,44,350,TimingShort,0,even,,938336,936353,935187,58,600066,931975,937205,937205,58,58,938336,610133,556887,TimingShort,0,182825,129,yes,16,1024,421
0,0,1418,1418,black,47,Default,no,2,,xpyriment,legacy,legacy,0,44,1,350,OSWeb experiment,uniform,undefined,259,129,129,0,0,129,129,129,129,0,0,0,129,0,1,0,0,,Fri Nov 15 2019 09:01:13 GMT+0100 (Central European Standard Time),739,2982,The main experiment item,yes,1535,,/Users/rijn/Downloads,no,mono,no,18,no,white,no,no,None,null,768,legacy,xpyriment,osweb,1.3.3,space,space,space,space,space,1478,28888,10059,1478,43174,2,legacy,,1573804945264,1024,2,48000,-16,experiment,44,350,TimingShort,0,even,,945120,942887,941338,58,600066,938342,943638,943638,58,58,945120,610133,556887,TimingShort,0,184303,130,yes,6,1024,421
0,0,1413,1413,black,47,Default,no,2,,xpyriment,legacy,legacy,0,44,1,350,OSWeb experiment,uniform,undefined,261,130,130,0,0,130,130,130,130,0,0,0,130,0,1,0,0,,Fri Nov 15 2019 09:01:13 GMT+0100 (Central European Standard Time),773,3090,The main experiment item,yes,1165,,/Users/rijn/Downloads,no,mono,no,18,no,white,no,no,None,null,768,legacy,xpyriment,osweb,1.3.3,space,space,space,space,space,850,28888,10059,850,43174,2,legacy,,1573804945264,1024,2,48000,-16,experiment,44,350,TimingShort,0,even,,951037,949387,948220,58,600066,945127,950170,950170,58,58,951037,610133,556887,TimingShort,0,185153,131,yes,16,1024,421
0,0,1416,1416,black,47,Default,no,2,,xpyriment,legacy,legacy,0,44,1,350,OSWeb experiment,uniform,undefined,263,131,131,0,0,131,131,131,131,0,0,0,131,0,1,0,0,,Fri Nov 15 2019 09:01:13 GMT+0100 (Central European Standard Time),718,3092,The main experiment item,yes,1535,,/Users/rijn/Downloads,no,mono,no,18,no,white,no,no,None,null,768,legacy,xpyriment,osweb,1.3.3,space,space,space,space,space,1797,28888,10059,1797,43174,2,legacy,,1573804945264,1024,2,48000,-16,experiment,44,350,TimingShort,0,even,,958221,955687,954137,58,600066,951043,956423,956423,58,58,958221,610133,556887,TimingShort,0,186950,132,yes,6,1024,421
0,0,1414,1414,black,47,Default,no,2,,xpyriment,legacy,legacy,0,44,1,350,OSWeb experiment,uniform,undefined,265,132,132,0,0,132,132,132,132,0,0,0,132,0,1,0,0,,Fri Nov 15 2019 09:01:13 GMT+0100 (Central European Standard Time),773,3243,The main experiment item,yes,1165,,/Users/rijn/Downloads,no,mono,no,18,no,white,no,no,None,null,768,legacy,xpyriment,osweb,1.3.3,space,space,space,space,space,1112,28888,10059,1112,43174,2,legacy,,1573804945264,1024,2,48000,-16,experiment,44,350,TimingShort,0,even,,964553,962654,961487,58,600066,958227,963437,963437,58,58,964553,610133,556887,TimingShort,0,188062,133,yes,16,1024,421
0,0,1416,1416,black,47,Default,no,2,,xpyriment,legacy,legacy,0,44,1,350,OSWeb experiment,uniform,undefined,267,133,133,0,0,133,133,133,133,0,0,0,133,0,1,0,0,,Fri Nov 15 2019 09:01:13 GMT+0100 (Central European Standard Time),810,3072,The main experiment item,yes,1535,,/Users/rijn/Downloads,no,mono,no,18,no,white,no,no,None,null,768,legacy,xpyriment,osweb,1.3.3,space,space,space,space,space,1702,28888,10059,1702,43174,2,legacy,,1573804945264,1024,2,48000,-16,experiment,44,350,TimingShort,0,even,,971720,969188,967638,58,600066,964559,970006,970006,58,58,971721,610133,556887,TimingShort,0,189764,134,yes,6,1024,421
0,0,1412,1412,black,47,Default,no,2,,xpyriment,legacy,legacy,0,44,1,350,OSWeb experiment,uniform,undefined,269,134,134,0,0,134,134,134,134,0,0,0,134,0,1,0,0,,Fri Nov 15 2019 09:01:13 GMT+0100 (Central European Standard Time),869,3167,The main experiment item,yes,1165,,/Users/rijn/Downloads,no,mono,no,18,no,white,no,no,None,null,768,legacy,xpyriment,osweb,1.3.3,space,space,space,space,space,923,28888,10059,923,43174,2,legacy,,1573804945264,1024,2,48000,-16,experiment,44,350,TimingShort,0,even,,977887,976071,974905,58,600066,971726,976954,976954,58,58,977887,610133,556887,TimingShort,0,190687,135,yes,16,1024,421
0,0,1414,1414,black,47,Default,no,2,,xpyriment,legacy,legacy,0,44,1,350,OSWeb experiment,uniform,undefined,271,135,135,0,0,135,135,135,135,0,0,0,135,0,1,0,0,,Fri Nov 15 2019 09:01:13 GMT+0100 (Central European Standard Time),872,2782,The main experiment item,yes,1165,,/Users/rijn/Downloads,no,mono,no,18,no,white,no,no,None,null,768,legacy,xpyriment,osweb,1.3.3,space,space,space,space,space,1569,28888,10059,1569,43174,2,legacy,,1573804945264,1024,2,48000,-16,experiment,44,350,TimingShort,0,even,,984338,981870,980688,58,600066,977893,982755,982755,58,58,984338,610133,556887,TimingShort,0,192256,136,yes,16,1024,421
0,0,1414,1414,black,47,Default,no,2,,xpyriment,legacy,legacy,0,44,1,350,OSWeb experiment,uniform,undefined,273,136,136,0,0,136,136,136,136,0,0,0,136,0,1,0,0,,Fri Nov 15 2019 09:01:13 GMT+0100 (Central European Standard Time),828,3105,The main experiment item,yes,1265,,/Users/rijn/Downloads,no,mono,no,18,no,white,no,no,None,null,768,legacy,xpyriment,osweb,1.3.3,space,space,space,space,space,1483,28888,10059,1483,43174,2,legacy,,1573804945264,1024,2,48000,-16,experiment,44,350,TimingShort,0,even,,991054,988722,987454,58,600066,984346,989554,989554,58,58,991054,610133,556887,TimingShort,0,193739,137,yes,6,1024,421
0,0,1419,1419,black,47,Default,no,2,,xpyriment,legacy,legacy,0,44,1,350,OSWeb experiment,uniform,undefined,275,137,137,0,0,137,137,137,137,0,0,0,137,0,1,0,0,,Fri Nov 15 2019 09:01:13 GMT+0100 (Central European Standard Time),899,3094,The main experiment item,yes,1395,,/Users/rijn/Downloads,no,mono,no,18,no,white,no,no,None,null,768,legacy,xpyriment,osweb,1.3.3,space,space,space,space,space,2061,28888,10059,2061,43174,2,legacy,,1573804945264,1024,2,48000,-16,experiment,44,350,TimingShort,0,even,,998537,995555,994154,58,600066,991059,996471,996471,58,58,998537,610133,556887,TimingShort,0,195800,138,yes,6,1024,421
0,0,1418,1418,black,47,Default,no,2,,xpyriment,legacy,legacy,0,44,1,350,OSWeb experiment,uniform,undefined,277,138,138,0,0,138,138,138,138,0,0,0,138,0,1,0,0,,Fri Nov 15 2019 09:01:13 GMT+0100 (Central European Standard Time),853,2928,The main experiment item,yes,1535,,/Users/rijn/Downloads,no,mono,no,18,no,white,no,no,None,null,768,legacy,xpyriment,osweb,1.3.3,space,space,space,space,space,1355,28888,10059,1355,43174,2,legacy,,1573804945264,1024,2,48000,-16,experiment,44,350,TimingShort,0,even,,1005270,1003039,1001488,58,600066,998543,1003905,1003905,58,58,1005271,610133,556887,TimingShort,0,197155,139,yes,6,1024,421
0,0,1420,1420,black,47,Default,no,2,,xpyriment,legacy,legacy,0,44,1,350,OSWeb experiment,uniform,undefined,279,139,139,0,0,139,139,139,139,0,0,0,139,0,1,0,0,,Fri Nov 15 2019 09:01:13 GMT+0100 (Central European Standard Time),810,2936,The main experiment item,yes,1265,,/Users/rijn/Downloads,no,mono,no,18,no,white,no,no,None,null,768,legacy,xpyriment,osweb,1.3.3,space,space,space,space,space,1675,28888,10059,1675,43174,2,legacy,,1573804945264,1024,2,48000,-16,experiment,44,350,TimingShort,0,even,,1012004,1009504,1008222,58,600066,1005276,1010321,1010321,58,58,1012004,610133,556887,TimingShort,0,198830,140,yes,6,1024,421
0,0,1422,1422,black,47,Default,no,2,,xpyriment,legacy,legacy,0,44,1,350,OSWeb experiment,uniform,undefined,281,140,140,0,0,140,140,140,140,0,0,0,140,0,1,0,0,,Fri Nov 15 2019 09:01:13 GMT+0100 (Central European Standard Time),723,3048,The main experiment item,yes,1395,,/Users/rijn/Downloads,no,mono,no,18,no,white,no,no,None,null,768,legacy,xpyriment,osweb,1.3.3,space,space,space,space,space,1617,28888,10059,1617,43174,2,legacy,,1573804945264,1024,2,48000,-16,experiment,44,350,TimingShort,0,even,,1018837,1016471,1015071,58,600066,1012011,1017204,1017204,58,58,1018837,610133,556887,TimingShort,0,200447,141,yes,6,1024,421
0,0,1425,1425,black,47,Default,no,2,,xpyriment,legacy,legacy,0,44,1,350,OSWeb experiment,uniform,undefined,283,141,141,0,0,141,141,141,141,0,0,0,141,0,1,0,0,,Fri Nov 15 2019 09:01:13 GMT+0100 (Central European Standard Time),786,3215,The main experiment item,yes,1535,,/Users/rijn/Downloads,no,mono,no,18,no,white,no,no,None,null,768,legacy,xpyriment,osweb,1.3.3,space,space,space,space,space,1850,28888,10059,1850,43174,2,legacy,,1573804945264,1024,2,48000,-16,experiment,44,350,TimingShort,0,even,,1026287,1023621,1022072,58,600066,1018843,1024425,1024426,58,58,1026287,610133,556887,TimingShort,0,202297,142,yes,6,1024,421
0,0,1427,1427,black,47,Default,no,2,,xpyriment,legacy,legacy,0,44,1,350,OSWeb experiment,uniform,undefined,285,142,142,0,0,142,142,142,142,0,0,0,142,0,1,0,0,,Fri Nov 15 2019 09:01:13 GMT+0100 (Central European Standard Time),829,3079,The main experiment item,yes,1395,,/Users/rijn/Downloads,no,mono,no,18,no,white,no,no,None,null,768,legacy,xpyriment,osweb,1.3.3,space,space,space,space,space,1816,28888,10059,1816,43174,2,legacy,,1573804945264,1024,2,48000,-16,experiment,44,350,TimingShort,0,even,,1033437,1030788,1029388,58,600066,1026293,1031621,1031621,58,58,1033437,610133,556887,TimingShort,0,204113,143,yes,6,1024,421
0,0,1427,1427,black,47,Default,no,2,,xpyriment,legacy,legacy,0,44,1,350,OSWeb experiment,uniform,undefined,287,143,143,0,0,143,143,143,143,0,0,0,143,0,1,0,0,,Fri Nov 15 2019 09:01:13 GMT+0100 (Central European Standard Time),806,2881,The main experiment item,yes,1675,,/Users/rijn/Downloads,no,mono,no,18,no,white,no,no,None,null,768,legacy,xpyriment,osweb,1.3.3,space,space,space,space,space,1309,28888,10059,1309,43174,2,legacy,,1573804945264,1024,2,48000,-16,experiment,44,350,TimingShort,0,even,,1040155,1038021,1036339,58,600066,1033445,1038839,1038839,58,58,1040155,610133,556887,TimingShort,0,205422,144,yes,6,1024,421
0,0,1425,1425,black,47,Default,no,2,,xpyriment,legacy,legacy,0,44,1,350,OSWeb experiment,uniform,undefined,289,144,144,0,0,144,144,144,144,0,0,0,144,0,1,0,0,,Fri Nov 15 2019 09:01:13 GMT+0100 (Central European Standard Time),812,3131,The main experiment item,yes,1165,,/Users/rijn/Downloads,no,mono,no,18,no,white,no,no,None,null,768,legacy,xpyriment,osweb,1.3.3,space,space,space,space,space,1266,28888,10059,1266,43174,2,legacy,,1573804945264,1024,2,48000,-16,experiment,44,350,TimingShort,0,even,,1046588,1044488,1043306,58,600066,1040160,1045306,1045306,58,58,1046588,610133,556887,TimingShort,0,206688,145,yes,16,1024,421
0,0,1429,1429,black,47,Default,no,2,,xpyriment,legacy,legacy,0,44,1,350,OSWeb experiment,uniform,undefined,291,145,145,0,0,145,145,145,145,0,0,0,145,0,1,0,0,,Fri Nov 15 2019 09:01:13 GMT+0100 (Central European Standard Time),818,2755,The main experiment item,yes,1395,,/Users/rijn/Downloads,no,mono,no,18,no,white,no,no,None,null,768,legacy,xpyriment,osweb,1.3.3,space,space,space,space,space,2011,28888,10059,2011,43174,2,legacy,,1573804945264,1024,2,48000,-16,experiment,44,350,TimingShort,0,even,,1053622,1050755,1049356,58,600066,1046593,1051593,1051593,58,58,1053622,610133,556887,TimingShort,0,208699,146,yes,6,1024,421
0,0,1427,1427,black,47,Default,no,2,,xpyriment,legacy,legacy,0,44,1,350,OSWeb experiment,uniform,undefined,293,146,146,0,0,146,146,146,146,0,0,0,146,0,1,0,0,,Fri Nov 15 2019 09:01:13 GMT+0100 (Central European Standard Time),744,2968,The main experiment item,yes,1165,,/Users/rijn/Downloads,no,mono,no,18,no,white,no,no,None,null,768,legacy,xpyriment,osweb,1.3.3,space,space,space,space,space,1120,28888,10059,1120,43174,2,legacy,,1573804945264,1024,2,48000,-16,experiment,44,350,TimingShort,0,even,,1059671,1057789,1056606,58,600066,1053628,1058540,1058540,58,58,1059671,610133,556887,TimingShort,0,209819,147,yes,16,1024,421
0,0,1428,1428,black,47,Default,no,2,,xpyriment,legacy,legacy,0,44,1,350,OSWeb experiment,uniform,undefined,295,147,147,0,0,147,147,147,147,0,0,0,147,0,1,0,0,,Fri Nov 15 2019 09:01:13 GMT+0100 (Central European Standard Time),799,2860,The main experiment item,yes,1395,,/Users/rijn/Downloads,no,mono,no,18,no,white,no,no,None,null,768,legacy,xpyriment,osweb,1.3.3,space,space,space,space,space,1536,28888,10059,1536,43174,2,legacy,,1573804945264,1024,2,48000,-16,experiment,44,350,TimingShort,0,even,,1066321,1063958,1062555,58,600066,1059678,1064772,1064772,58,58,1066321,610133,556887,TimingShort,0,211355,148,yes,6,1024,421
0,0,1428,1428,black,47,Default,no,2,,xpyriment,legacy,legacy,0,44,1,350,OSWeb experiment,uniform,undefined,297,148,148,0,0,148,148,148,148,0,0,0,148,0,1,0,0,,Fri Nov 15 2019 09:01:13 GMT+0100 (Central European Standard Time),878,3096,The main experiment item,yes,1265,,/Users/rijn/Downloads,no,mono,no,18,no,white,no,no,None,null,768,legacy,xpyriment,osweb,1.3.3,space,space,space,space,space,1391,28888,10059,1391,43174,2,legacy,,1573804945264,1024,2,48000,-16,experiment,44,350,TimingShort,0,even,,1073004,1070722,1069440,58,600066,1066327,1071605,1071605,58,58,1073004,610133,556887,TimingShort,0,212746,149,yes,6,1024,421
0,0,1428,1428,black,47,Default,no,2,,xpyriment,legacy,legacy,0,44,1,350,OSWeb experiment,uniform,undefined,299,149,149,0,0,149,149,149,149,0,0,0,149,0,1,0,0,,Fri Nov 15 2019 09:01:13 GMT+0100 (Central European Standard Time),890,3074,The main experiment item,yes,1165,,/Users/rijn/Downloads,no,mono,no,18,no,white,no,no,None,null,768,legacy,xpyriment,osweb,1.3.3,space,space,space,space,space,1520,28888,10059,1520,43174,2,legacy,,1573804945264,1024,2,48000,-16,experiment,44,350,TimingShort,0,even,,1079689,1077255,1076088,58,600066,1073011,1078156,1078156,58,58,1079689,610133,556887,TimingShort,0,214266,150,yes,16,1024,421
0,0,1427,1427,black,47,Default,no,2,,xpyriment,legacy,legacy,0,44,1,350,OSWeb experiment,uniform,undefined,301,150,150,0,0,150,150,150,150,0,0,0,150,0,1,0,0,,Fri Nov 15 2019 09:01:13 GMT+0100 (Central European Standard Time),827,2952,The main experiment item,yes,1165,,/Users/rijn/Downloads,no,mono,no,18,no,white,no,no,None,null,768,legacy,xpyriment,osweb,1.3.3,space,space,space,space,space,1196,28888,10059,1196,43174,2,legacy,,1573804945264,1024,2,48000,-16,experiment,44,350,TimingShort,0,even,,1085857,1083823,1082656,58,600066,1079694,1084656,1084656,58,58,1085857,610133,556887,TimingShort,0,215462,151,yes,16,1024,421
0,0,1429,1429,black,47,Default,no,2,,xpyriment,legacy,legacy,0,44,1,350,OSWeb experiment,uniform,undefined,303,151,151,0,0,151,151,151,151,0,0,0,151,0,1,0,0,,Fri Nov 15 2019 09:01:13 GMT+0100 (Central European Standard Time),828,2934,The main experiment item,yes,1165,,/Users/rijn/Downloads,no,mono,no,18,no,white,no,no,None,null,768,legacy,xpyriment,osweb,1.3.3,space,space,space,space,space,1758,28888,10059,1758,43174,2,legacy,,1573804945264,1024,2,48000,-16,experiment,44,350,TimingShort,0,even,,1092588,1089989,1088806,58,600066,1085862,1090822,1090822,58,58,1092588,610133,556887,TimingShort,0,217220,152,yes,16,1024,421
0,0,1429,1429,black,47,Default,no,2,,xpyriment,legacy,legacy,0,44,1,350,OSWeb experiment,uniform,undefined,305,152,152,0,0,152,152,152,152,0,0,0,152,0,1,0,0,,Fri Nov 15 2019 09:01:13 GMT+0100 (Central European Standard Time),807,2878,The main experiment item,yes,1165,,/Users/rijn/Downloads,no,mono,no,18,no,white,no,no,None,null,768,legacy,xpyriment,osweb,1.3.3,space,space,space,space,space,1427,28888,10059,1427,43174,2,legacy,,1573804945264,1024,2,48000,-16,experiment,44,350,TimingShort,0,even,,1098905,1096656,1095489,58,600066,1092594,1097473,1097473,58,58,1098905,610133,556887,TimingShort,0,218647,153,yes,16,1024,421
0,0,1430,1430,black,47,Default,no,2,,xpyriment,legacy,legacy,0,44,1,350,OSWeb experiment,uniform,undefined,307,153,153,0,0,153,153,153,153,0,0,0,153,0,1,0,0,,Fri Nov 15 2019 09:01:13 GMT+0100 (Central European Standard Time),817,2931,The main experiment item,yes,1165,,/Users/rijn/Downloads,no,mono,no,18,no,white,no,no,None,null,768,legacy,xpyriment,osweb,1.3.3,space,space,space,space,space,1581,28888,10059,1581,43174,2,legacy,,1573804945264,1024,2,48000,-16,experiment,44,350,TimingShort,0,even,,1105438,1103023,1101855,58,600066,1098912,1103855,1103855,58,58,1105438,610133,556887,TimingShort,0,220228,154,yes,16,1024,421
0,0,1431,1431,black,47,Default,no,2,,xpyriment,legacy,legacy,0,44,1,350,OSWeb experiment,uniform,undefined,309,154,154,0,0,154,154,154,154,0,0,0,154,0,1,0,0,,Fri Nov 15 2019 09:01:13 GMT+0100 (Central European Standard Time),834,3104,The main experiment item,yes,1395,,/Users/rijn/Downloads,no,mono,no,18,no,white,no,no,None,null,768,legacy,xpyriment,osweb,1.3.3,space,space,space,space,space,1582,28888,10059,1582,43174,2,legacy,,1573804945264,1024,2,48000,-16,experiment,44,350,TimingShort,0,even,,1112389,1109956,1108556,58,600066,1105447,1110806,1110806,58,58,1112389,610133,556887,TimingShort,0,221810,155,yes,6,1024,421
0,0,1431,1431,black,47,Default,no,2,,xpyriment,legacy,legacy,0,44,1,350,OSWeb experiment,uniform,undefined,311,155,155,0,0,155,155,155,155,0,0,0,155,0,1,0,0,,Fri Nov 15 2019 09:01:13 GMT+0100 (Central European Standard Time),837,2979,The main experiment item,yes,1395,,/Users/rijn/Downloads,no,mono,no,18,no,white,no,no,None,null,768,legacy,xpyriment,osweb,1.3.3,space,space,space,space,space,1373,28888,10059,1373,43174,2,legacy,,1573804945264,1024,2,48000,-16,experiment,44,350,TimingShort,0,even,,1119022,1116789,1115389,58,600066,1112395,1117639,1117639,58,58,1119022,610133,556887,TimingShort,0,223183,156,yes,6,1024,421
0,0,1431,1431,black,47,Default,no,2,,xpyriment,legacy,legacy,0,44,1,350,OSWeb experiment,uniform,undefined,313,156,156,0,0,156,156,156,156,0,0,0,156,0,1,0,0,,Fri Nov 15 2019 09:01:13 GMT+0100 (Central European Standard Time),790,2755,The main experiment item,yes,1395,,/Users/rijn/Downloads,no,mono,no,18,no,white,no,no,None,null,768,legacy,xpyriment,osweb,1.3.3,space,space,space,space,space,1486,28888,10059,1486,43174,2,legacy,,1573804945264,1024,2,48000,-16,experiment,44,350,TimingShort,0,even,,1125488,1123189,1121789,58,600066,1119028,1123990,1123990,58,58,1125488,610133,556887,TimingShort,0,224669,157,yes,6,1024,421
0,0,1430,1430,black,47,Default,no,2,,xpyriment,legacy,legacy,0,44,1,350,OSWeb experiment,uniform,undefined,315,157,157,0,0,157,157,157,157,0,0,0,157,0,1,0,0,,Fri Nov 15 2019 09:01:13 GMT+0100 (Central European Standard Time),751,3220,The main experiment item,yes,1165,,/Users/rijn/Downloads,no,mono,no,18,no,white,no,no,None,null,768,legacy,xpyriment,osweb,1.3.3,space,space,space,space,space,1316,28888,10059,1316,43174,2,legacy,,1573804945264,1024,2,48000,-16,experiment,44,350,TimingShort,0,even,,1131989,1129906,1128724,58,600066,1125494,1130672,1130672,58,58,1131989,610133,556887,TimingShort,0,225985,158,yes,16,1024,421
0,0,1430,1430,black,47,Default,no,2,,xpyriment,legacy,legacy,0,44,1,350,OSWeb experiment,uniform,undefined,317,158,158,0,0,158,158,158,158,0,0,0,158,0,1,0,0,,Fri Nov 15 2019 09:01:13 GMT+0100 (Central European Standard Time),743,3090,The main experiment item,yes,1675,,/Users/rijn/Downloads,no,mono,no,18,no,white,no,no,None,null,768,legacy,xpyriment,osweb,1.3.3,space,space,space,space,space,1369,28888,10059,1369,43174,2,legacy,,1573804945264,1024,2,48000,-16,experiment,44,350,TimingShort,0,even,,1138905,1136773,1135089,58,600066,1131994,1137523,1137523,58,58,1138905,610133,556887,TimingShort,0,227354,159,yes,6,1024,421
0,0,1432,1432,black,47,Default,no,2,,xpyriment,legacy,legacy,0,44,1,350,OSWeb experiment,uniform,undefined,319,159,159,0,0,159,159,159,159,0,0,0,159,0,1,0,0,,Fri Nov 15 2019 09:01:13 GMT+0100 (Central European Standard Time),864,3190,The main experiment item,yes,1535,,/Users/rijn/Downloads,no,mono,no,18,no,white,no,no,None,null,768,legacy,xpyriment,osweb,1.3.3,space,space,space,space,space,1697,28888,10059,1697,43174,2,legacy,,1573804945264,1024,2,48000,-16,experiment,44,350,TimingShort,0,even,,1146223,1143656,1142106,58,600066,1138913,1144523,1144523,58,58,1146223,610133,556887,TimingShort,0,229051,160,yes,6,1024,421
,,,,,,,,,"{u'codename': u'Mozilla', u'version': u'5.0 (Windows NT 10.0; Win64; x64) AppleWebKit/537.36 (KHTML, like Gecko) Chrome/78.0.3904.97 Safari/537.36', u'name': u'Netscape'}",,,,,,,,,,,,,,,,,,,,,,,,,,,,"{u'startdate': u'15-10-19', u'startdateUTC': u'15-10-19', u'starttime': u'09:01:13'}",,,,,,,"{u'debug': 0, u'taskname': 0, u'taskversion': 0, u'parameters': 0, u'pilot': 0}",,,,,,,,,,,,,,,,,,,,,,,,,,,,,"{u'pixelDepth': 24, u'width': 1920, u'height': 1080, u'availableWidth': 1920, u'availableHeight': 1040, u'colorDepth': 24, u'screenX': 0, u'screenY': 0}",,,,,,,,,,,,{u'os': u'Win32'},,,,,,,,,,,,,,,,,,,,,
0,0,18600,18600,black,47,Default,no,1,,xpyriment,legacy,legacy,0,44,1,351,OSWeb experiment,uniform,undefined,1,0,0,0,0,0,0,0,0,0,0,0,0,0,1,0,0,,Fri Nov 15 2019 09:01:11 GMT+0100 (Central European Standard Time),858,2764,The main experiment item,yes,1165,,/Users/rijn/Downloads,no,mono,no,18,no,white,no,no,None,null,768,legacy,xpyriment,osweb,1.3.3,space,space,,space,,18600,36097,,18600,,2,legacy,,1573804900310,1024,2,48000,-16,experiment,44,351,TimingShort,999999999,odd,,59620,40137,38957,67,,36178,41005,41005,67,67,59621,36170,,TimingShort,0,18600,1,yes,8,1024,422
0,0,9634,9634,black,47,Default,no,1,,xpyriment,legacy,legacy,0,44,1,351,OSWeb experiment,uniform,undefined,3,1,1,0,0,1,1,1,1,0,0,0,1,0,1,0,0,,Fri Nov 15 2019 09:01:11 GMT+0100 (Central European Standard Time),825,2978,The main experiment item,yes,1265,,/Users/rijn/Downloads,no,mono,no,18,no,white,no,no,None,null,768,legacy,xpyriment,osweb,1.3.3,space,space,,space,,668,36097,,668,,2,legacy,,1573804900310,1024,2,48000,-16,experiment,44,351,TimingShort,999999999,odd,,65421,63904,62621,67,,59626,64738,64738,67,67,65421,36170,,TimingShort,0,19268,2,yes,8,1024,422
0,0,6801,6801,black,47,Default,no,1,,xpyriment,legacy,legacy,0,44,1,351,OSWeb experiment,uniform,undefined,5,2,2,0,0,2,2,2,2,0,0,0,2,0,1,0,0,,Fri Nov 15 2019 09:01:11 GMT+0100 (Central European Standard Time),775,2858,The main experiment item,yes,1165,,/Users/rijn/Downloads,no,mono,no,18,no,white,no,no,None,null,768,legacy,xpyriment,osweb,1.3.3,space,space,,space,,1135,36097,,1135,,2,legacy,,1573804900310,1024,2,48000,-16,experiment,44,351,TimingShort,999999999,odd,,71420,69492,68305,67,,65430,70271,70271,67,67,71420,36170,,TimingShort,0,20403,3,yes,8,1024,422
0,0,5386,5386,black,47,Default,no,1,,xpyriment,legacy,legacy,0,44,1,351,OSWeb experiment,uniform,undefined,7,3,3,0,0,3,3,3,3,0,0,0,3,0,1,0,0,,Fri Nov 15 2019 09:01:11 GMT+0100 (Central European Standard Time),852,3226,The main experiment item,yes,1395,,/Users/rijn/Downloads,no,mono,no,18,no,white,no,no,None,null,768,legacy,xpyriment,osweb,1.3.3,space,space,,space,,1139,36097,,1139,,2,legacy,,1573804900310,1024,2,48000,-16,experiment,44,351,TimingShort,999999999,odd,,78087,76071,74672,67,,71430,76939,76939,67,67,78087,36170,,TimingShort,0,21542,4,yes,8,1024,422
